time	ax	ay	az	atotal
0.017509937	0.01	0.17	-0.02	0.17
0.019762993	-0.05	0.28	0.11	0.3
0.025769711	-0.04	0.05	0.08	0.1
0.040544987	-0.04	-0.09	0.12	0.15
0.045608997	-0.01	-0.16	0.23	0.28
0.056295872	0.03	-0.12	0.21	0.24
0.066243887	-0.01	-0.01	0.13	0.13
0.076278687	-0.01	0.04	0.06	0.07
0.086469889	0.01	0.01	-0.07	0.07
0.096428871	0.04	-0.01	-0.27	0.27
0.114607811	0.05	0.02	-0.29	0.29
0.116868019	-0.02	0.19	-0.13	0.23
0.125429869	0.07	0.07	-0.03	0.1
0.134996891	0.13	-0.14	-0.15	0.24
0.145627975	0.02	-0.13	-0.27	0.3
0.155385017	0.02	-0.02	-0.04	0.04
0.165909767	-0.05	0.03	0.2	0.2
0.176461697	-0.21	-0.04	0.23	0.31
0.186003685	-0.18	-0.1	0.03	0.2
0.195820808	-0.03	-0.11	-0.05	0.12
0.215450764	-0.02	0.02	-0.07	0.07
0.217786789	-0.06	0.11	-0.17	0.21
0.224324703	0.05	0.04	-0.26	0.26
0.234583855	0.06	-0.04	-0.24	0.25
0.244654894	-0.17	0.05	-0.24	0.29
0.254981995	-0.16	0.16	-0.13	0.26
0.265088797	0.13	0.09	-0.07	0.17
0.275096893	0.28	-0.02	-0.03	0.28
0.285566807	0.16	-0.01	0.03	0.16
0.295519829	-0.06	0.02	-0.05	0.08
0.314800739	-0.13	-0.19	-0.23	0.32
0.317091942	-0.11	-0.41	-0.36	0.55
0.323818684	-0.27	0.35	0.04	0.44
0.333840847	-0.2	0.6	0.52	0.81
0.343976974	-0.1	0.24	0.59	0.64
0.353890896	-0.04	-0.12	0.58	0.59
0.364225864	-0.08	-0.3	0.17	0.35
0.374116898	0.03	-0.31	-0.55	0.63
0.384438992	0.18	-0.04	-0.8	0.82
0.393949986	0.24	0.16	-0.58	0.64
0.419773817	0.1	0.26	-0.15	0.31
0.422112942	-0.11	0.23	0.12	0.28
0.423985004	-0.06	0.13	0.22	0.26
0.43935585	0.04	0.02	0.12	0.12
0.442783833	0.13	-0.07	0.13	0.19
0.456215858	-0.03	-0.07	0.98	0.98
0.463322878	-0.27	0.03	0.34	0.43
0.472923756	-0.23	-0.1	0.09	0.26
0.483382702	-0.1	-0.1	0.1	0.17
0.493399858	0.05	-0.16	0.02	0.16
0.518777847	0.2	-0.16	0.05	0.26
0.520897865	0.17	-0.02	0.11	0.2
0.522783756	-0.06	0.12	0.05	0.14
0.54172802	-0.17	0.18	-0.12	0.27
0.544653893	-0.06	0.14	-0.32	0.35
0.555408001	0.01	0.18	-0.28	0.33
0.562322855	-0.04	0.29	-0.09	0.3
0.572595835	-0.03	0.19	-0.06	0.2
0.582664967	0.11	-0.02	-0.24	0.26
0.592777729	0.22	-0.05	-0.39	0.45
0.619179726	0.23	0	-0.31	0.38
0.621347904	0.16	-0.04	-0.07	0.17
0.623239994	0.09	-0.09	0.06	0.14
0.640757799	0.12	-0.07	0.1	0.17
0.643013954	0.24	-0.11	-0.18	0.31
0.655251026	0.27	-0.09	-0.58	0.64
0.661602974	0.17	-0.03	-0.66	0.68
0.672002792	-0.01	0.07	-0.31	0.31
0.681740761	-0.15	0.07	0.06	0.17
0.692039967	-0.02	-0.04	0.22	0.22
0.720778942	0.22	-0.21	0.08	0.31
0.723011971	0.23	-0.19	-0.18	0.34
0.724872828	0.06	-0.03	-0.27	0.27
0.741199017	0.12	0.07	-0.34	0.36
0.744094849	0	0.13	-0.24	0.27
0.75643301	-0.13	0.15	-0.02	0.19
0.761035919	-0.19	0.14	0.14	0.27
0.771019936	-0.13	0.04	0.07	0.15
0.78151083	-0.04	-0.01	-0.2	0.2
0.791197777	0.04	0.02	-0.45	0.45
0.801930904	-0.05	0.05	-0.65	0.65
0.821537018	-0.1	0.1	-0.75	0.76
0.823629856	-0.04	0.06	-0.93	0.93
0.829631805	0	0.01	-0.93	0.93
0.839898825	0.08	-0.1	-0.85	0.85
0.850067854	0.17	-0.24	-0.68	0.74
0.860085011	0.07	-0.24	-0.68	0.72
0.870738029	-0.22	-0.14	-0.61	0.66
0.880699873	-0.16	-0.06	-0.53	0.55
0.8907938	-0.19	-0.07	-0.48	0.52
0.90066576	-0.27	0.04	-0.34	0.43
0.921780825	-0.26	0.05	-0.17	0.31
0.923874855	-0.17	-0.01	-0.25	0.3
0.929177761	-0.11	-0.07	-0.52	0.53
0.940886021	-0.15	-0.05	-0.85	0.86
0.949695826	-0.23	-0.14	-1.26	1.28
0.959397793	-0.32	0.13	-1.17	1.21
0.969738007	-0.39	0.24	-1.17	1.25
0.979829788	-0.45	-0.03	-1.48	1.54
0.990028858	-0.35	-0.19	-1.62	1.66
0.999646902	-0.41	-0.2	-1.62	1.68
1.019013882	-0.36	-0.18	-1.57	1.62
1.021063805	-0.29	-0.07	-1.24	1.27
1.028417826	-0.18	-0.08	-0.88	0.9
1.040689945	-0.14	-0.24	-0.82	0.86
1.048556805	0.02	-0.58	-0.96	1.12
1.059005737	0.08	-0.46	-0.26	0.53
1.069227695	-0.04	-0.2	0.37	0.42
1.079012871	-0.04	-0.35	0.24	0.42
1.089115858	0.09	-0.37	0.19	0.42
1.099340916	0.18	-0.34	0.04	0.38
1.122440815	0.11	-0.32	0.17	0.37
1.124662876	0.04	-0.21	0.6	0.63
1.127625942	-0.03	-0.12	1.12	1.12
1.14110899	0.05	-0.15	1.44	1.44
1.147782803	0.15	-0.19	1.4	1.42
1.158466816	0.13	-0.15	1.45	1.46
1.168345928	0.16	-0.15	1.17	1.19
1.178452015	0.28	-0.16	0.6	0.68
1.188345909	0.27	0.05	0.11	0.29
1.198282719	0.22	0.23	-0.1	0.33
1.225783825	0.12	0.19	-0.22	0.31
1.227797031	0.09	0.13	-0.46	0.48
1.229763031	0.13	0.17	-0.68	0.71
1.240651846	0.02	0.34	-0.66	0.74
1.246784687	-0.07	0.39	-0.75	0.84
1.257157803	0.1	0.29	-0.89	0.94
1.266968727	0.29	0.05	-1.04	1.08
1.277600765	0.49	-0.16	-1.07	1.18
1.287961006	0.48	-0.22	-0.95	1.08
1.297509909	0.4	-0.15	-0.8	0.9
1.324745893	0.53	-0.17	-0.9	1.05
1.327111721	0.61	-0.32	-1.29	1.46
1.329010963	0.56	-0.42	-1.77	1.9
1.340359688	0.19	-0.29	-2.21	2.23
1.345953941	0.01	-0.11	-2.44	2.44
1.356600761	-0.02	-0.02	-2.11	2.11
1.366456985	-0.14	-0.06	-1.29	1.29
1.376150846	0.2	-0.3	-0.34	0.49
1.386950016	0.43	-0.44	0.48	0.78
1.396893024	0.51	-0.35	0.87	1.06
1.424587727	0.62	-0.61	0.49	0.99
1.426805973	0.83	-1.13	-0.12	1.4
1.428676844	0.53	-1.1	-0.41	1.28
1.439601898	-0.04	-0.65	-0.8	1.03
1.445317745	-0.07	-0.26	-1.26	1.28
1.456758976	-0.03	-0.11	-1.05	1.05
1.465798855	-0.25	0.24	-0.48	0.59
1.475937843	-0.42	0.45	0.1	0.62
1.486162901	-0.18	0.41	0.61	0.75
1.496194839	-0.21	0.23	0.83	0.88
1.523240805	-0.42	-0.12	0.86	0.96
1.525409698	-0.46	-0.28	1.18	1.29
1.527239799	-0.46	-0.36	1.3	1.42
1.541922808	-0.4	-0.29	1.09	1.19
1.544961929	-0.32	-0.16	0.85	0.92
1.557301998	-0.05	0.07	0.77	0.77
1.564906836	-0.01	0.03	0.26	0.26
1.574800014	-0.11	-0.02	0	0.11
1.585374832	-0.1	-0.37	0.29	0.48
1.595360756	0.33	-1.25	0.41	1.35
1.605294704	-0.11	-0.29	0.67	0.73
1.62643981	-0.17	0.32	0.82	0.89
1.628421783	0.04	0.27	0.76	0.8
1.633957863	-0.01	0.22	1.09	1.11
1.643803835	-0.07	0.09	1.46	1.46
1.655198812	-0.22	-0.05	1.34	1.35
1.664715767	-0.29	0.07	0.76	0.81
1.674785852	-0.15	0.24	-0.18	0.33
1.68508482	0.1	0.27	-0.99	1.03
1.695440769	0.2	0.34	-1.51	1.56
1.704465866	0.16	0.44	-1.32	1.4
1.72275877	-0.19	0.23	-0.51	0.59
1.724991798	-0.05	0.23	-0.38	0.44
1.733719826	0.15	0.3	-0.21	0.39
1.743076801	-0.04	0.23	0.81	0.84
1.753570795	0.22	-0.25	0.07	0.34
1.763502836	0.38	-0.83	-0.33	0.97
1.773677826	0.2	-0.8	-0.5	0.96
1.783867836	0.1	-0.5	-0.8	0.94
1.793746948	-0.17	-0.26	-0.38	0.49
1.803925991	-0.42	-0.05	0.17	0.45
1.821461678	-0.27	0.05	0.17	0.32
1.823504925	0.02	-0.06	-0.07	0.09
1.832513809	0.06	-0.21	-0.32	0.38
1.842409849	0.27	-0.32	-0.51	0.65
1.852845907	0.39	-0.4	-0.7	0.89
1.862623692	0.4	-0.42	-0.98	1.13
1.873510838	0.74	-1.11	-1.47	1.98
1.882946014	0.65	-0.96	-1.64	2
1.893393993	0.23	-0.07	-1.44	1.45
1.903403759	-0.07	0.13	-1.41	1.41
1.921779871	-0.26	0.09	-1.33	1.35
1.923870802	-0.29	0.17	-0.97	1.02
1.93225193	-0.06	-0.11	-0.81	0.81
1.941533804	0.11	-0.48	-0.75	0.89
1.95200491	-0.01	-0.55	-0.51	0.75
1.962096691	-0.25	-0.41	-0.17	0.5
1.972200871	-0.29	-0.36	-0.04	0.46
1.982227802	-0.26	-0.43	-0.04	0.5
1.992899895	-0.24	-0.53	-0.05	0.58
2.002676964	-0.32	-0.48	0.11	0.58
2.032202721	-0.41	-0.25	0.04	0.48
2.034377813	-0.53	0.03	-0.16	0.55
2.036350727	-0.53	0.19	-0.26	0.62
2.040794849	-0.4	0.19	-0.34	0.55
2.054924011	-0.33	0.12	-0.21	0.4
2.060689926	-0.29	-0.01	0.25	0.38
2.072025776	-0.3	-0.13	0.63	0.7
2.081650734	-0.43	-0.12	0.94	1.04
2.091423988	-0.55	0.06	1.09	1.22
2.101852894	-0.51	0.19	1.02	1.15
2.129223824	-0.18	0.13	0.75	0.78
2.131230831	0.04	-0.07	0.41	0.41
2.133324862	0.11	-0.24	0.22	0.34
2.140267849	0.21	-0.33	0.09	0.4
2.150251865	0.28	-0.35	-0.07	0.45
2.160569906	0.23	-0.26	-0.27	0.43
2.170527935	0.07	-0.09	-0.21	0.23
2.180425882	-0.22	0.05	0.14	0.26
2.193696022	-0.38	0.16	0.53	0.67
2.200668812	-0.44	0.3	0.9	1.04
2.229204893	-0.4	0.26	1.13	1.22
2.231334686	-0.32	0.08	1.29	1.33
2.23342371	-0.3	0.01	1.64	1.66
2.23958683	-0.23	0	1.94	1.95
2.249557972	-0.04	-0.08	1.93	1.93
2.259967804	0.2	-0.15	1.67	1.68
2.269816875	0.35	-0.21	1.37	1.42
2.280676842	0.23	-0.19	0.99	1.03
2.2905159	0.03	-0.02	0.83	0.83
2.299928904	0.11	0	0.52	0.53
2.327922821	0.15	-0.09	0.1	0.2
2.329927921	0.11	-0.13	-0.02	0.17
2.331991911	0.07	-0.11	0.01	0.13
2.341359854	0.07	-0.13	0.05	0.15
2.348531723	0.13	-0.23	0	0.26
2.359097004	-0.01	-0.22	0.03	0.22
2.368914843	-0.17	-0.05	0.35	0.39
2.379223824	-0.17	0.01	0.42	0.45
2.389521837	-0.27	0.08	0.41	0.49
2.399590015	-0.22	0.19	0.45	0.53
2.408960819	-0.15	0.14	0.47	0.51
2.427794933	-0.12	0.13	0.56	0.58
2.430034876	-0.08	0.03	0.71	0.71
2.437891006	-0.15	0	0.81	0.82
2.447672844	-0.1	0.1	0.81	0.82
2.458469868	0.05	0.08	0.79	0.79
2.468098879	0.15	0.03	0.76	0.77
2.478732824	0.13	0.1	0.69	0.7
2.488426685	0.04	0.2	0.69	0.71
2.498587847	0.13	0.27	0.68	0.74
2.508596897	0.12	0.21	0.6	0.64
2.529666901	0.12	0.19	0.62	0.65
2.531644821	0.16	0.22	0.58	0.64
2.537230015	0.05	0.31	0.54	0.62
2.547408819	0.01	0.38	0.62	0.72
2.557271004	-0.04	0.38	0.69	0.78
2.567523956	-0.07	0.46	0.6	0.75
2.578162909	-0.27	0.72	0.5	0.91
2.587989807	-0.22	0.45	0.2	0.53
2.597545862	0.2	0.19	0.19	0.33
2.608186722	0.16	0.2	0.25	0.35
2.628324986	-0.12	0.17	0.62	0.65
2.630280972	-0.38	0.33	0.92	1.04
2.636498928	-0.4	0.41	0.82	1
2.646379948	-0.1	0.13	0.52	0.54
2.656675816	0.22	-0.2	0.31	0.42
2.666908741	0.26	-0.35	0.29	0.52
2.676951885	0.39	-0.36	0.37	0.64
2.687644005	0.49	-0.32	0.63	0.85
2.697179794	0.57	-0.31	0.7	0.95
2.707258701	0.52	-0.25	0.62	0.84
2.728759766	0.23	-0.07	0.5	0.55
2.730824947	0.02	0.15	0.33	0.36
2.735605717	-0.19	0.26	0.27	0.42
2.746416807	-0.3	0.27	0.32	0.51
2.756059885	-0.42	0.24	0.35	0.59
2.76613903	-0.49	0.17	0.41	0.66
2.77579689	-0.33	0.21	0.39	0.55
2.78661871	-0.26	0.22	0.29	0.44
2.796095848	-0.2	0.15	0.36	0.43
2.806694031	-0.16	0.22	0.5	0.56
2.835067749	-0.27	0.32	0.54	0.68
2.837173939	-0.23	0.42	0.57	0.74
2.839290857	-0.14	0.5	0.39	0.64
2.860631943	0.08	0.36	0.13	0.39
2.863711834	0.37	0.11	-0.18	0.42
2.87388587	0.42	-0.04	-0.25	0.49
2.876937866	0.46	-0.04	0.06	0.46
2.890333891	0.34	-0.11	0.68	0.76
2.894933701	0.06	-0.05	0.75	0.75
2.906339884	-0.17	0.19	0.48	0.54
2.929409027	-0.02	0.32	0.41	0.52
2.931730747	0.05	0.32	0.1	0.33
2.934326887	0.05	0.23	-0.07	0.24
2.944250822	0.03	0.08	-0.16	0.18
2.954355717	-0.14	0.16	-0.22	0.3
2.964291811	-0.37	0.45	-0.02	0.58
2.974429846	-0.34	0.48	0.03	0.58
2.9845469	0.02	0.17	-0.16	0.23
2.994687796	0	0.23	-0.23	0.32
3.005230904	-0.27	0.27	-0.24	0.45
3.03369689	-0.06	-0.22	-0.57	0.61
3.035773754	0.34	-0.56	-0.78	1.01
3.037852764	0.31	-0.35	-1.01	1.11
3.043833733	0.14	0.01	-0.99	0.99
3.053505898	-0.12	0.3	-0.78	0.84
3.063472748	-0.23	0.36	-0.81	0.91
3.073542833	0.15	0.15	-0.89	0.91
3.083791733	0.63	-0.36	-0.79	1.07
3.094102859	0.9	-0.7	-0.85	1.42
3.104435921	0.91	-0.81	-0.47	1.3
3.135994911	0.11	-1.19	0.47	1.28
3.137991905	0.4	-1.39	-0.02	1.44
3.140086889	0.94	-0.86	-0.01	1.27
3.159609795	0.31	-0.15	-0.21	0.4
3.161852837	0.17	-0.08	-1.02	1.03
3.172235966	0.69	-0.22	-1.16	1.36
3.175125837	0.95	0.04	-0.95	1.34
3.190232754	0.79	0.27	-0.88	1.21
3.19408083	0.43	0.2	-0.35	0.58
3.204889774	-0.03	0.1	0.33	0.34
3.212981701	-0.31	0.21	0.96	1.03
3.238629818	-0.6	0.54	1.11	1.37
3.240639687	-0.04	-0.33	0.1	0.34
3.242700815	-0.08	-0.11	-0.09	0.16
3.258430004	-0.31	0.6	0.14	0.68
3.262022018	-0.48	0.56	0.41	0.84
3.276744843	-0.78	0.68	0.68	1.23
3.282097816	-0.69	0.73	0.72	1.23
3.292037964	-0.56	0.57	0.7	1.06
3.302680016	-0.49	0.5	0.7	0.99
3.312317848	-0.53	0.55	0.74	1.06
3.334881783	-0.41	0.57	0.69	0.98
3.337068796	-0.25	0.57	0.49	0.79
3.341403008	-0.11	0.54	0.36	0.65
3.351111889	-0.13	0.36	0.73	0.82
3.361923695	-0.32	0.34	1.37	1.44
3.371473789	-0.32	0.42	1.1	1.22
3.381840706	-0.23	0.47	0.87	1.01
3.392007828	-0.37	0.32	1.18	1.27
3.401796818	-0.22	0.18	1.22	1.25
3.411939859	0	0.21	0.9	0.92
3.43140173	0.17	0.16	0.52	0.57
3.433708906	0.34	0.08	0.24	0.42
3.44095993	0.24	0.14	0.29	0.4
3.450562	0.2	0.18	0.51	0.57
3.460766792	0.24	0.05	0.51	0.56
3.470798016	0.18	-0.02	0.56	0.58
3.480743885	0.15	0	0.73	0.74
3.490831852	0.22	0.01	0.82	0.84
3.501667976	0.26	0	0.78	0.82
3.51114583	0.31	-0.02	0.61	0.68
3.533855915	0.29	-0.02	0.46	0.54
3.536057949	0.42	-0.03	0.38	0.56
3.540294886	0.39	-0.04	0.4	0.56
3.549888849	0.36	-0.01	0.43	0.56
3.560145855	0.32	-0.01	0.35	0.47
3.570049763	0.3	-0.11	0.24	0.39
3.580435753	0.46	-0.24	0.32	0.6
3.590569019	0.48	-0.19	0.37	0.63
3.600585938	0.25	-0.05	0.35	0.43
3.610558033	0.11	0.04	0.38	0.39
3.640538692	0.25	-0.02	0.27	0.36
3.642725945	0.53	-0.23	0.05	0.57
3.644614697	0.7	-0.49	0.13	0.86
3.658556938	0.66	-0.52	0.43	0.94
3.660408974	0.78	-0.48	0.56	1.07
3.673129797	0.92	-0.58	0.51	1.2
3.679214954	0.89	-0.67	0.4	1.18
3.689707756	0.58	-0.81	0.61	1.16
3.699435711	0.47	-0.64	0.93	1.22
3.709263802	0.54	-0.58	0.94	1.22
3.739633799	0.73	-0.9	0.62	1.31
3.741859913	0.76	-0.86	0.09	1.15
3.743723869	0.09	-0.74	-0.28	0.79
3.759076834	-1.16	-0.84	-0.55	1.53
3.760960817	-2.11	-0.76	-0.71	2.35
3.771417856	-2.82	-0.85	-0.85	3.06
3.778277874	-4.09	-1.11	-1.32	4.43
3.78932476	-6.34	-1.28	-1.76	6.7
3.798399925	-8.8	-0.76	-2.44	9.16
3.808367729	-10.74	-0.04	-4	11.46
3.83451581	-11.99	0.31	-6.27	13.53
3.836869717	-13.69	0.3	-8.87	16.31
3.8389678	-14.91	0.01	-11.13	18.6
3.847913742	-16.73	-0.17	-12.67	20.98
3.858127832	-19.66	-0.19	-13.98	24.12
3.868362904	-22.35	-0.22	-15.01	26.92
3.878583908	-24.56	-0.43	-15.69	29.14
3.888673782	-26.9	-0.84	-15.94	31.27
3.898465872	-29.04	-1.52	-15.48	32.94
3.908514023	-31.38	-2.16	-14.58	34.66
3.931389809	-34.07	-3.11	-13.81	36.89
3.933439732	-36.21	-5.01	-13.16	38.85
3.937039852	-38.31	-7.95	-11.81	40.86
3.947189808	-39.98	-11.73	-9.65	42.76
3.957422733	-41.2	-15.45	-7.15	44.57
3.966982841	-41.38	-19.38	-4.41	45.9
3.977970839	-40.58	-23.03	-1.8	46.69
3.987889767	-40.94	-25.71	-0.03	48.34
3.997416973	-42.92	-27.81	-0.14	51.14
4.008294821	-45.31	-32.99	-1.78	56.07
4.015378952	-46.1	-41.96	-2	62.36
4.030243874	-44.57	-51.02	1.6	67.76
4.034836769	-38.67	-56.42	7.86	68.85
4.045146942	-32.11	-54.91	12.44	64.81
4.054895878	-28.78	-50.05	14.02	59.41
4.064829826	-26.44	-45.17	12.03	53.7
4.074803829	-25.1	-41.79	9.23	49.61
4.085104942	-24.3	-39.52	6.34	46.82
4.095309734	-22.54	-37.8	3.52	44.15
4.105444908	-21.45	-36.21	2.08	42.13
4.115119934	-20.3	-34.71	1.42	40.23
4.130489826	-18.33	-33.63	1.41	38.32
4.134047031	-16.3	-32.87	2.04	36.74
4.144510746	-14.08	-31.49	2.72	34.6
4.154212952	-11.57	-29.29	3	31.63
4.164480686	-9.85	-27.13	3.35	29.05
4.174779892	-8.37	-25.27	3.92	26.9
4.184080839	-6.76	-23.67	4.64	25.04
4.195003986	-5.03	-22.34	5.29	23.5
4.204429865	-2.97	-21.09	5.88	22.09
4.215333939	-1.1	-19.9	6.51	20.96
4.235052824	0.32	-18.68	7.42	20.1
4.237396717	1.47	-17.31	8.24	19.22
4.243084908	2.09	-16.04	8.52	18.28
4.253826857	2.16	-14.84	8.19	17.08
4.263354778	1.61	-13.73	7.31	15.63
4.273141861	0.7	-12.59	5.91	13.92
4.283846855	-0.29	-11.46	4.38	12.27
4.29357481	-0.99	-10.56	3.05	11.03
4.304122925	-1.61	-9.77	1.79	10.06
4.313385963	-2.19	-8.86	0.69	9.15
4.336165905	-2.62	-7.94	-0.09	8.36
4.338544846	-2.85	-7.01	-0.65	7.59
4.342401981	-3.14	-6.02	-0.88	6.84
4.359483719	-3.22	-5.14	-0.85	6.12
4.362058878	-3.2	-4.45	-0.88	5.55
4.374295712	-3.09	-3.87	-0.84	5.02
4.382259846	-3.04	-3.25	-0.84	4.52
4.392649889	-3.01	-2.74	-1.25	4.25
4.403125763	-2.71	-2.37	-1.69	3.97
4.41304183	-2.27	-2.16	-1.79	3.6
4.43993187	-1.81	-1.99	-1.68	3.17
4.442153931	-1.46	-1.89	-1.69	2.92
4.444042683	-1.26	-1.96	-1.89	3
4.459107876	-1.31	-1.81	-1.73	2.82
4.461390972	-1.41	-1.54	-1.53	2.58
4.473865032	-1.49	-1.31	-1.26	2.35
4.481560707	-1.64	-1.15	-0.88	2.18
4.492044926	-1.6	-1.18	-0.56	2.06
4.502138853	-1.34	-1.29	-0.26	1.87
4.512399912	-1.08	-1.64	-0.02	1.96
4.541754723	-1.04	-1.94	-0.07	2.2
4.543972015	-1.26	-1.74	-0.24	2.16
4.545839787	-1.58	-1.08	-0.57	1.99
4.558334827	-1.5	-0.37	-0.79	1.73
4.560830832	-1.44	-0.05	-0.68	1.59
4.574154854	-1.36	-0.11	-0.53	1.46
4.580993891	-1.18	-0.4	-0.56	1.36
4.591552734	-1.07	-0.71	-0.59	1.41
4.60184288	-1.28	-0.72	-0.64	1.6
4.611883879	-1.41	-0.57	-0.66	1.65
4.639742851	-1.29	-0.57	-0.65	1.55
4.641851902	-1.23	-0.5	-0.65	1.47
4.643614769	-1.13	-0.38	-0.79	1.43
4.659878731	-0.97	-0.38	-0.79	1.3
4.662378788	-0.91	-0.51	-0.55	1.17
4.674329758	-0.93	-0.55	-0.21	1.1
4.68043375	-0.88	-0.46	-0.06	0.99
4.690582752	-0.92	-0.43	-0.11	1.02
4.701423883	-0.9	-0.32	-0.08	0.95
4.710906029	-0.82	-0.21	0.16	0.86
4.721140862	-0.75	-0.12	0.38	0.84
4.740614891	-0.68	0.01	0.41	0.79
4.742640972	-0.7	0.1	0.32	0.77
4.749623775	-0.82	0.21	0.05	0.84
4.759716988	-0.89	0.33	-0.3	0.99
4.769931793	-0.74	0.36	-0.54	0.98
4.77976799	-0.71	0.4	-0.71	1.08
4.79000473	-0.78	0.4	-0.74	1.14
4.800209999	-0.83	0.48	-0.56	1.11
4.810514927	-0.88	0.61	-0.42	1.15
4.82066679	-0.89	0.67	-0.37	1.17
4.840240955	-0.86	0.64	-0.09	1.07
4.842263699	-0.8	0.62	0.19	1.02
4.848855019	-0.77	0.6	0.23	1
4.858692884	-0.88	0.64	0.09	1.09
4.869217873	-0.78	0.64	0.13	1.01
4.879050732	-0.82	0.54	0.41	1.06
4.889799833	-0.99	0.43	0.53	1.2
4.899552822	-1.12	0.53	0.28	1.27
4.910002708	-1.09	0.49	0.03	1.19
4.919224739	-1.12	0.44	-0.06	1.2
4.93875885	-1.08	0.41	0.06	1.15
4.940769911	-1.05	0.43	0.23	1.15
4.948341846	-0.71	0.36	0.37	0.87
4.958628893	-0.28	0.09	0.42	0.51
4.968037844	-0.12	-0.19	0.38	0.44
4.978482723	-0.14	-0.29	0.21	0.38
4.989255905	0.08	-0.36	0.08	0.37
4.99845171	0.07	-0.3	0.12	0.33
5.008816719	-0.18	-0.23	0.41	0.5
5.018348694	-0.37	-0.18	0.8	0.89
5.037347794	-0.58	-0.08	0.83	1.01
5.039438725	-0.6	-0.16	0.61	0.87
5.047679901	-0.59	-0.35	0.34	0.76
5.058841705	-0.47	-0.42	0.21	0.66
5.067364693	-0.16	-0.47	0.24	0.55
5.077655792	-0.02	-0.67	0.49	0.83
5.087574959	0.17	-0.73	0.69	1.01
5.098106861	0.25	-0.75	0.76	1.09
5.107725859	0.08	-0.75	0.86	1.14
5.118183851	-0.05	-0.93	0.84	1.25
5.148266792	0.05	-1.27	0.79	1.49
5.150309801	0.3	-1.7	0.97	1.98
5.152341843	0.3	-1.89	1.46	2.4
5.158871889	0.17	-1.64	1.79	2.43
5.166746855	0.16	-1.45	1.74	2.27
5.177063942	0.27	-1.51	1.41	2.08
5.186981678	0.4	-1.69	1.03	2.01
5.197090864	0.41	-1.82	0.73	2
5.207171917	0.76	-2.08	0.69	2.31
5.217255831	1.22	-2.56	0.92	2.98
5.24728775	1.46	-2.99	1.25	3.55
5.249388695	1.53	-3.28	1.69	3.99
5.251513958	1.27	-3.09	1.87	3.82
5.256960869	0.89	-2.65	1.57	3.2
5.265964031	0.61	-2.31	1.06	2.61
5.275709867	0.55	-2.17	0.52	2.29
5.286050797	0.62	-2.2	0.16	2.29
5.29598093	0.62	-2.33	0.14	2.41
5.306254864	0.36	-2.18	0.38	2.24
5.316412926	0.23	-1.89	0.67	2.01
5.346019745	0.04	-1.71	0.94	1.95
5.348295689	-0.42	-1.38	1.02	1.76
5.350162983	-1.09	-0.93	0.66	1.57
5.356863022	-1.59	-0.52	0.09	1.67
5.364958763	-1.63	-0.36	-0.46	1.73
5.375437737	-1.58	-0.47	-0.67	1.77
5.385231018	-1.73	-0.57	-0.37	1.85
5.395687819	-1.91	-0.5	0.1	1.97
5.405571938	-2	-0.35	0.52	2.09
5.415483952	-2.4	-0.05	0.84	2.54
5.441162825	-2.81	0.29	0.95	2.98
5.443485737	-2.96	0.4	1.02	3.15
5.445374966	-3.15	0.37	1.04	3.33
5.459357738	-3.38	0.47	0.8	3.5
5.464097023	-3.42	0.71	0.33	3.5
5.475390911	-3.14	0.86	-0.01	3.25
5.484499931	-2.85	0.75	-0.11	2.94
5.494827747	-2.55	0.54	-0.2	2.61
5.504979849	-2.49	0.44	-0.2	2.53
5.515186787	-2.8	0.59	-0.01	2.86
5.525044918	-3.03	0.82	0.16	3.14
5.546810865	-3.08	1.05	0.16	3.25
5.54880476	-3.28	1.34	-0.04	3.54
5.553629875	-3.26	1.56	-0.25	3.62
5.563511848	-2.86	1.47	-0.22	3.22
5.574469805	-2.42	1.12	0.04	2.66
5.584014893	-2.13	0.8	0.42	2.31
5.594039917	-1.83	0.55	0.68	2.02
5.604277849	-1.68	0.4	0.99	1.99
5.614264011	-1.71	0.36	1.38	2.22
5.624190807	-1.56	0.36	1.5	2.19
5.645725727	-1.13	0.29	1.25	1.7
5.647727966	-0.78	0.23	0.79	1.13
5.652763844	-0.77	0.26	0.32	0.87
5.663243771	-1	0.46	0.03	1.1
5.673220873	-0.98	0.59	-0.07	1.14
5.682932854	-0.88	0.63	-0.07	1.08
5.693791866	-0.79	0.52	-0.04	0.94
5.703646898	-0.67	0.36	-0.09	0.76
5.713521957	-0.53	0.3	-0.14	0.62
5.723140717	-0.34	0.26	-0.18	0.46
5.74610281	-0.23	0.24	-0.17	0.37
5.748093843	-0.21	0.22	-0.2	0.36
5.75244379	-0.25	0.24	-0.28	0.44
5.762118816	-0.54	0.39	-0.32	0.73
5.772517681	-0.74	0.59	-0.36	1.01
5.782160759	-0.75	0.61	-0.44	1.06
5.792356014	-0.87	0.54	-0.51	1.14
5.802968979	-1.01	0.63	-0.55	1.31
5.812767029	-1.07	0.78	-0.48	1.4
5.822875023	-1.15	0.87	-0.35	1.48
5.841112852	-1.14	0.88	-0.26	1.46
5.843142986	-0.98	0.84	-0.19	1.3
5.851354837	-0.85	0.75	-0.04	1.13
5.861434937	-0.9	0.62	0.08	1.09
5.871833801	-0.99	0.59	-0.11	1.15
5.88160181	-1.08	0.7	-0.46	1.36
5.892222881	-1.1	0.78	-0.71	1.52
5.901845932	-0.99	0.71	-0.87	1.49
5.912055016	-0.88	0.65	-0.92	1.42
5.922276974	-0.74	0.53	-0.83	1.23
5.950703859	-0.68	0.37	-0.64	1
5.952795982	-0.71	0.26	-0.39	0.85
5.954927921	-0.79	0.19	-0.11	0.81
5.960614681	-0.86	0.11	0.07	0.86
5.976987839	-0.94	0.06	0.19	0.96
5.980835915	-1.04	0.05	0.22	1.06
5.991148949	-1.06	0.05	0.18	1.07
6.001989841	-1.04	0.02	0.08	1.04
6.010734797	-1.09	-0.03	0.04	1.09
6.020812988	-1.22	-0.03	0.04	1.22
6.047262907	-1.41	0.06	0.03	1.41
6.049331903	-1.6	0.19	0	1.61
6.051317692	-1.62	0.3	0.01	1.64
6.059932709	-1.54	0.38	-0.01	1.58
6.069906712	-1.44	0.44	-0.05	1.5
6.079797745	-1.22	0.48	-0.08	1.31
6.090019703	-1.05	0.48	-0.13	1.16
6.100352764	-1.01	0.44	-0.1	1.1
6.110409737	-0.94	0.43	-0.07	1.03
6.12129879	-0.74	0.39	-0.08	0.84
6.151996851	-0.49	0.32	-0.12	0.59
6.154230833	-0.29	0.19	-0.11	0.36
6.156230927	-0.09	0.12	-0.01	0.15
6.159592867	-0.03	0.18	0.03	0.18
6.169306755	-0.32	0.34	0.06	0.47
6.179107904	-0.8	0.59	0.04	0.99
6.189057827	-0.93	0.92	-0.11	1.31
6.199364901	-0.78	1.1	-0.26	1.37
6.209125996	-0.57	1.05	-0.36	1.24
6.22031188	-0.41	0.88	-0.39	1.04
6.247870922	-0.35	0.66	-0.32	0.81
6.24988389	-0.34	0.54	-0.08	0.64
6.251990795	-0.28	0.45	0.2	0.56
6.258322716	-0.15	0.27	0.36	0.47
6.268521786	-0.09	0.07	0.42	0.43
6.278819799	0.09	0.05	0.46	0.47
6.288510799	0.1	0.16	0.47	0.5
6.298376799	-0.19	0.4	0.61	0.75
6.309087753	-0.39	0.59	0.69	0.98
6.319108009	-0.53	0.63	0.61	1.02
6.32908082	-0.74	0.59	0.57	1.1
6.349671841	-0.62	0.51	0.66	1.03
6.351941824	-0.35	0.45	0.7	0.9
6.358155727	-0.01	0.33	0.62	0.7
6.367793798	0	0.13	0.51	0.52
6.377570868	-0.31	0.02	0.43	0.53
6.387205839	-0.54	0.24	0.42	0.72
6.398322821	-0.6	0.74	0.55	1.1
6.408550739	-0.66	0.93	0.83	1.41
6.417949677	-0.66	0.79	1.08	1.49
6.428877831	-0.44	0.59	1.02	1.25
6.45065403	-0.13	0.42	0.65	0.78
6.453042984	0.15	0.34	0.3	0.47
6.457465887	0.21	0.25	0.11	0.34
6.467066765	0.27	0.11	0.1	0.3
6.476862907	0.32	-0.04	0.31	0.44
6.487203836	0.05	-0.17	0.68	0.7
6.497637749	-0.68	-0.13	1.51	1.66
6.507405758	-0.43	0.12	0.99	1.08
6.518110752	0.42	0.21	0.11	0.48
6.527612686	0.32	0.03	0.16	0.35
6.549810886	0.5	-0.27	0.16	0.59
6.55190897	1.1	-0.6	0.38	1.3
6.556171894	1.54	-1.06	0.12	1.87
6.565993786	2.37	-1.13	0.54	2.68
6.576597691	3.05	-0.7	1.69	3.55
6.586622715	3.2	-0.89	1.7	3.73
6.596543789	2.63	-0.92	1.82	3.32
6.607036829	1.5	-0.54	1.99	2.54
6.616793871	1.17	-0.64	2.18	2.55
6.626824856	1.18	-1.01	2.09	2.6
6.648499012	1.31	-1.29	1.5	2.37
6.650541782	1.3	-1.68	0.28	2.14
6.655721903	0.42	-2.43	-0.89	2.62
6.665287971	-2.16	-3.68	-1.52	4.52
6.676042795	-5.97	-4.51	-2.36	7.84
6.685829878	-9.7	-5.05	-5.03	12.03
6.695597887	-12.87	-7.99	-10.04	18.17
6.706327915	-16.01	-11.63	-16.7	25.89
6.71598196	-20.37	-13.13	-23.19	33.54
6.726611853	-26.69	-11.9	-30.55	42.27
6.755076885	-32.49	-9.31	-37.64	50.58
6.757176876	-36.48	-8.14	-42.38	56.5
6.759341717	-39.99	-8.46	-44.1	60.12
6.777085781	-44.06	-10.37	-41.08	61.12
6.779083729	-47.12	-13.9	-33.97	59.72
6.790588856	-49.19	-17.7	-25.36	58.1
6.794871807	-49.17	-22.1	-17.74	56.75
6.807775021	-48.14	-26.21	-11.34	55.97
6.815242767	-47.51	-29.96	-6.39	56.52
6.824826717	-48.29	-31.65	-3.26	57.82
6.849399805	-51.2	-32.3	-5.54	60.78
6.851707935	-57.33	-37.24	-11.79	69.37
6.854101896	-65.4	-51	-12.93	83.93
6.864318848	-71.21	-65.98	-5.37	97.22
6.874847889	-71.99	-70.64	2.31	100.88
6.884030819	-72.81	-72.7	2.49	102.92
6.895056725	-73.99	-80.4	-3.35	109.31
6.904898882	-75.37	-86.71	-8.33	115.18
6.914777756	-76.39	-87.82	-5.58	116.52
6.924916744	-68.39	-88.36	2.19	111.75
6.950264931	-54.83	-88.3	9.91	104.4
6.952303886	-46.03	-85.83	15.07	98.55
6.954370975	-39.77	-74.12	15.74	85.57
6.963620901	-34.77	-63.53	12.5	73.49
6.974301815	-30.81	-56.75	8.3	65.1
6.983428955	-26.78	-52.09	5.42	58.82
6.994284868	-22.69	-47.56	4.62	52.89
7.003667831	-18.78	-43.75	5.45	47.92
7.014072895	-14.43	-40.73	7.16	43.79
7.023614883	-10.32	-37.29	9.27	39.78
7.050430775	-6.8	-33.45	11.39	35.98
7.052590847	-4.01	-29.84	13.56	33.02
7.054682732	-2.23	-26.46	15.17	30.58
7.062955856	-1.7	-23.49	15.42	28.15
7.074471951	-2.28	-21.2	14.21	25.62
7.08224678	-3.81	-19.61	12.15	23.38
7.092666864	-5.22	-18.54	9.54	21.49
7.103046894	-6.63	-17.81	6.78	20.17
7.112927914	-7.81	-17.47	4.39	19.63
7.123136997	-8.45	-17.41	2.58	19.52
7.133038998	-8.78	-17.25	1.02	19.38
7.152869701	-8.84	-16.92	-0.43	19.09
7.155059814	-8.62	-16.52	-1.51	18.69
7.162194729	-8.11	-16.12	-2.12	18.16
7.171626806	-7.8	-15.39	-2.4	17.41
7.182187796	-7.66	-14.42	-2.44	16.5
7.192005873	-7.55	-13.28	-2.25	15.44
7.202268839	-7.19	-11.89	-1.76	14
7.212216854	-6.59	-10.37	-1.03	12.32
7.222573757	-5.79	-9.2	-0.07	10.87
7.232007027	-4.49	-8.47	1.13	9.65
7.253642797	-3.07	-8.43	2.29	9.25
7.255916834	-2.26	-9.28	3.73	10.25
7.261037827	-1.84	-10.22	5.09	11.56
7.270803928	-1.62	-10.8	5.87	12.39
7.281236887	-1.8	-11.12	6.3	12.9
7.290933847	-2.39	-10.87	6.7	12.99
7.301216841	-3.96	-10.51	7.17	13.32
7.311748981	-5.84	-10.68	7.56	14.32
7.321519852	-7.59	-10.77	7.74	15.28
7.331842899	-9.13	-10.67	7.21	15.78
7.354356766	-10.14	-10.12	5.58	15.37
7.356585979	-10.83	-9.25	3.58	14.68
7.360099792	-10.55	-8.76	2.1	13.87
7.377368927	-9.73	-8.67	1.64	13.13
7.37992382	-8.9	-8.87	2.23	12.76
7.392158031	-8.29	-9.16	2.83	12.67
7.400136948	-8.51	-8.97	2.61	12.63
7.410778999	-9.62	-8.27	2.19	12.87
7.420925856	-10.35	-6.92	1.91	12.59
7.4309659	-10.27	-5.5	1.61	11.76
7.451409817	-10.1	-4.8	1.59	11.29
7.453691959	-10.03	-4.17	1.59	10.97
7.459664822	-9.86	-3.92	1.8	10.76
7.469658852	-9.85	-4.09	2.06	10.86
7.479866982	-10	-3.71	1.91	10.83
7.489706993	-10.37	-3.12	1.43	10.92
7.500264883	-10.69	-2.58	0.94	11.03
7.51005888	-10.24	-2.01	0.44	10.44
7.520258904	-9.62	-2.01	0.3	9.83
7.530368805	-9.07	-1.97	0.16	9.28
7.56256485	-9.14	-1.65	-0.21	9.29
7.564806938	-9.5	-1.35	-0.59	9.61
7.566730976	-9.77	-1.2	-0.88	9.88
7.577052832	-9.75	-1.56	-0.99	9.92
7.578993797	-9.4	-1.94	-1	9.65
7.591490746	-9.23	-1.89	-1.2	9.49
7.598352909	-9.15	-1.38	-1.39	9.35
7.608633995	-9.19	-1.02	-1.45	9.35
7.61884284	-9	-0.95	-1.57	9.18
7.629153728	-8.59	-1.03	-1.65	8.8
7.656182766	-8.07	-1.52	-1.48	8.34
7.658485889	-7.87	-1.8	-1.18	8.15
7.660308838	-8.13	-1.77	-0.98	8.37
7.677968025	-7.95	-1.55	-1.06	8.16
7.679874897	-7.61	-1.14	-1.38	7.81
7.693093777	-7.34	-1.11	-1.91	7.66
7.697598934	-7.39	-1.59	-2.42	7.93
7.709455013	-7.37	-1.47	-2.82	8.02
7.718060017	-7.59	-0.8	-3.53	8.4
7.727847815	-8.01	-0.36	-4.41	9.15
7.755764008	-8	-0.01	-5.08	9.47
7.7578969	-7.81	0.41	-5.3	9.44
7.759740829	-7.85	0.83	-5.14	9.41
7.777832031	-7.75	1.23	-4.77	9.18
7.779655933	-6.9	1.34	-4.67	8.43
7.792712688	-5.96	1.03	-4.61	7.6
7.796904802	-5.17	0.74	-4.38	6.81
7.808831692	-4.5	0.66	-4.21	6.19
7.817374706	-3.96	0.52	-3.95	5.61
7.82760787	-3.55	0.33	-3.57	5.04
7.856819868	-3.24	0.18	-3.1	4.48
7.859019756	-3.06	0.16	-2.71	4.09
7.860884905	-3.03	0.33	-2.36	3.85
7.878397942	-3.08	0.51	-1.98	3.69
7.880357742	-3.16	0.56	-1.63	3.59
7.893517017	-3.1	0.53	-1.34	3.41
7.896636963	-2.89	0.42	-1.01	3.09
7.909558773	-2.83	0.43	-0.64	2.93
7.916492939	-2.86	0.53	-0.29	2.92
7.926933765	-2.77	0.62	-0.06	2.83
7.937122822	-2.7	0.68	0.03	2.78
7.958889008	-2.78	0.7	0.15	2.87
7.960920811	-2.88	0.65	0.4	2.97
7.965615749	-2.82	0.54	0.62	2.93
7.977991819	-2.75	0.5	0.71	2.88
7.985436916	-2.89	0.56	0.75	3.03
7.99548769	-3.15	0.76	0.81	3.34
8.005920887	-3.19	1.01	0.72	3.42
8.016786814	-3.1	1.09	0.47	3.31
8.026046753	-2.86	1.09	0.1	3.06
8.036607742	-2.49	1.1	-0.42	2.75
8.058672905	-2.14	1.09	-1	2.6
8.060692787	-1.84	1.04	-1.61	2.65
8.065060854	-1.69	1.09	-2.11	2.91
8.077569008	-1.61	1.18	-2.38	3.1
8.084736824	-1.59	1.22	-2.39	3.11
8.095201969	-1.53	1.15	-2.23	2.93
8.105473995	-1.36	1.07	-2.03	2.66
8.115567684	-1.21	0.97	-1.83	2.39
8.125574827	-1.03	0.86	-1.61	2.09
8.135585785	-0.88	0.83	-1.41	1.85
8.158385754	-0.75	0.81	-1.21	1.63
8.160384893	-0.61	0.73	-1.04	1.4
8.164159775	-0.44	0.68	-0.85	1.17
8.178064823	-0.29	0.65	-0.71	1
8.183943748	-0.07	0.6	-0.62	0.86
8.194478989	0.15	0.52	-0.56	0.77
8.204146862	0.31	0.41	-0.45	0.68
8.214615822	0.41	0.37	-0.28	0.61
8.224452972	0.42	0.4	-0.09	0.58
8.234755993	0.34	0.44	0.12	0.56
8.254304886	0.18	0.43	0.37	0.59
8.256358862	0.06	0.4	0.62	0.74
8.263585806	0	0.38	0.84	0.92
8.27347374	-0.02	0.35	1	1.05
8.283724785	0	0.29	1.09	1.12
8.293511868	0.03	0.31	1.1	1.14
8.303800821	-0.03	0.38	1.07	1.13
8.314354897	-0.14	0.42	1.01	1.1
8.324201822	-0.3	0.5	0.9	1.07
8.334342003	-0.46	0.56	0.82	1.09
8.36297369	-0.62	0.5	0.74	1.08
8.365208864	-0.66	0.39	0.68	1.02
8.367099762	-0.61	0.33	0.57	0.89
8.378078938	-0.64	0.32	0.38	0.81
8.382844925	-0.69	0.32	0.23	0.79
8.392836809	-0.68	0.34	0.18	0.78
8.403039932	-0.85	0.55	0.05	1.01
8.412936687	-1.15	0.87	-0.22	1.45
8.422725677	-1.21	1.08	-0.37	1.66
8.433381796	-1.19	1.2	-0.47	1.75
8.461410999	-1.13	1.13	-0.57	1.69
8.463680744	-1.05	0.94	-0.59	1.52
8.465557814	-0.87	0.66	-0.51	1.2
8.476545811	-0.66	0.36	-0.4	0.85
8.481804848	-0.45	0.12	-0.21	0.51
8.492805958	-0.25	-0.01	-0.01	0.25
8.502186775	-0.01	-0.11	0.19	0.21
8.512753963	0.2	-0.07	0.25	0.32
8.522516727	0.11	0.05	0.3	0.32
8.532336712	-0.06	0.05	0.33	0.33
8.56215477	-0.05	0.13	0.33	0.35
8.564226866	-0.02	0.18	0.28	0.33
8.566014767	-0.04	0.14	0.34	0.36
8.578398705	0.04	0.02	0.41	0.41
8.581138849	0.36	-0.14	0.17	0.42
8.593115807	0.47	-0.32	0.23	0.61
8.60155201	0.59	-0.27	0.44	0.78
8.611399889	0.5	0.01	0.46	0.67
8.621819019	0.11	0.16	0.32	0.37
8.631824017	-0.21	0.29	0.01	0.35
8.659886837	0.05	0.23	0.66	0.7
8.662137985	-0.42	0.5	0.61	0.89
8.664017677	-0.29	0.64	0.48	0.85
8.678456783	0.11	0.45	0.52	0.69
8.6805408	0.1	0.26	0.47	0.54
8.691773891	0.42	-0.04	0.35	0.54
8.700865746	0.39	-0.15	0.25	0.48
8.71062088	0.17	-0.23	0.2	0.34
8.721545696	-0.08	-0.09	0.22	0.25
8.73088789	-0.44	0.38	0.17	0.6
8.741333961	-0.34	0.49	0.06	0.59
8.759972811	-0.09	0.46	-0.18	0.5
8.762091875	-0.27	0.45	-0.2	0.56
8.76974082	-0.5	0.44	0.1	0.67
8.779968739	-0.36	0.58	0.13	0.69
8.790045738	-0.25	0.54	0.1	0.6
8.800069809	0.14	0.22	0.14	0.29
8.810427904	0.5	-0.04	0.27	0.56
8.820400715	0.56	-0.45	0.94	1.18
8.830138683	0.12	-0.49	0.47	0.68
8.840966702	-0.08	-0.28	0.42	0.51
8.860210896	-0.88	0.54	0.34	1.08
8.862309933	-1.21	1.26	0.51	1.81
8.869010925	-0.67	1.33	0.21	1.5
8.879381895	-0.22	0.74	-0.18	0.79
8.889037848	0.13	0.2	-0.34	0.41
8.899526834	0.41	-0.08	-0.62	0.74
8.909175873	0.37	-0.14	-0.79	0.88
8.919945717	0.19	0.07	-0.67	0.69
8.92969799	-0.07	0.4	-0.35	0.53
8.93965888	-0.3	0.58	0.14	0.66
8.959167957	-0.48	0.47	0.45	0.8
8.961258888	-0.55	0.45	0.49	0.86
8.968274832	-0.56	0.75	0.29	0.97
8.97833395	-0.6	0.83	0.17	1.03
8.988173962	-0.53	0.55	0.58	0.95
8.99868989	-0.49	0.28	0.92	1.07
9.008979797	0.17	0.32	0.34	0.49
9.019053936	0.28	0.4	0.08	0.49
9.028924942	0.02	0.43	0.23	0.48
9.039587975	0.04	0.28	0.1	0.3
9.063049793	-0.01	0.33	0.17	0.37
9.065038681	0.08	0.27	0.36	0.45
9.067392826	0.01	0.08	0.5	0.5
9.079459906	0.05	0.07	0.63	0.63
9.0869627	0.21	0	0.63	0.66
9.097695827	0.39	-0.02	0.58	0.69
9.107445717	0.39	0.12	0.41	0.57
9.117365837	0.28	0.23	0.3	0.47
9.12845993	0.16	0.3	0.2	0.39
9.137850761	0.12	0.34	0.16	0.39
9.165666819	0.02	0.24	0.27	0.36
9.167617798	-0.38	0.52	0.72	0.96
9.169633865	-0.25	0.46	0.94	1.07
9.179270744	0.4	-0.33	0.53	0.74
9.186231852	0.12	0.02	0.48	0.49
9.196424007	0.23	0.19	0.51	0.59
9.20682478	0.18	0.09	0.38	0.43
9.217167854	0.16	0.27	0.15	0.34
9.226831913	0.18	0.27	0.06	0.33
9.237841845	0.05	0.16	0.71	0.72
9.260960817	-0.19	0.16	1.33	1.35
9.262976885	-0.1	0.09	1.27	1.27
9.265770912	-0.22	0.12	1.37	1.39
9.278275967	-0.41	0.19	1.25	1.32
9.285497904	-0.47	0.18	1	1.11
9.296020985	-0.44	0.27	0.56	0.76
9.306548834	-0.37	0.36	0.05	0.51
9.316249847	-0.19	0.36	-0.26	0.48
9.326165676	0.04	0.31	-0.23	0.38
9.336308956	0.02	0.4	-0.28	0.48
9.363933802	-0.24	0.56	-0.41	0.73
9.366065979	-0.36	0.53	-0.43	0.77
9.368122816	-0.21	0.49	-0.44	0.69
9.376156807	-0.16	0.5	-0.43	0.67
9.38515377	-0.12	0.56	-0.42	0.71
9.394925833	-0.1	0.59	-0.43	0.73
9.405401707	-0.02	0.57	-0.58	0.81
9.415137768	0	0.53	-0.79	0.95
9.425409794	-0.04	0.41	-0.83	0.92
9.435413837	-0.07	0.44	-0.69	0.82
9.463070869	-0.08	0.5	-0.48	0.69
9.46532774	-0.12	0.46	-0.31	0.56
9.467217922	-0.19	0.43	-0.23	0.52
9.476183891	-0.18	0.43	-0.2	0.5
9.4847188	-0.21	0.45	-0.17	0.52
9.49407196	-0.23	0.39	-0.08	0.45
9.504356861	-0.02	0.25	0.07	0.26
9.514431	0.17	0.2	0.03	0.26
9.524724007	0.17	0.2	0.05	0.26
9.534794807	0.13	0.21	0.14	0.28
9.545542717	0.09	0.22	0.2	0.31
9.568964005	0.09	0.16	0.27	0.32
9.570918798	0.08	0.05	0.46	0.46
9.573540688	0.11	0.04	0.58	0.59
9.583604813	0.05	0.03	0.61	0.61
9.593387842	0.01	-0.04	0.76	0.76
9.603621006	0.12	-0.04	0.78	0.79
9.613919735	0.19	0.05	0.66	0.68
9.623775005	0.23	0.02	0.53	0.57
9.634126902	0.22	-0.06	0.47	0.52
9.644208908	0.21	-0.04	0.48	0.52
9.664804935	0.12	0.09	0.38	0.4
9.666803837	0.05	0.13	0.28	0.31
9.673147678	0	0.08	0.28	0.29
9.683222771	-0.01	0.09	0.31	0.32
9.693328857	-0.05	0.11	0.35	0.37
9.703466892	-0.12	0.2	0.41	0.47
9.714300871	-0.21	0.28	0.4	0.53
9.723812819	-0.28	0.39	0.34	0.58
9.733604908	-0.4	0.42	0.38	0.69
9.744408846	-0.46	0.46	0.52	0.83
9.76649189	-0.69	0.55	0.72	1.13
9.768503904	-1.09	0.65	1.02	1.62
9.77241087	-1.5	0.7	1.29	2.09
9.782276869	-1.89	0.67	1.44	2.46
9.793156862	-2.32	0.57	1.48	2.81
9.80275774	-2.45	0.35	1.41	2.84
9.812527895	-2.45	-0.03	1.03	2.65
9.822850704	-2.73	-0.4	0.92	2.9
9.833076954	-3.62	-1.04	1.09	3.92
9.843308926	-4.61	-2.15	1.4	5.27
9.86529088	-5.76	-3.1	0.98	6.61
9.867286682	-6.95	-4.54	-0.42	8.31
9.871550798	-8.04	-6.53	-1.89	10.52
9.882148743	-10	-8.81	-4.1	13.94
9.891737938	-12.54	-11.88	-7.44	18.8
9.902141809	-13.61	-14.65	-12.61	23.64
9.912595749	-14.34	-16.98	-19.89	29.82
9.922058821	-15.14	-18.18	-26.82	35.76
9.932329893	-16.36	-17.72	-31.69	39.82
9.942264795	-16.54	-17.32	-35.88	43.13
9.967738867	-16.88	-17.22	-37.52	44.6
9.96983099	-17.75	-18.05	-35.61	43.69
9.971951008	-18.61	-19.73	-32.97	42.69
9.981370926	-19.86	-21.73	-31.08	42.8
9.991147995	-22.07	-22.94	-30.19	43.87
10.00100684	-26.28	-22.84	-31	46.61
10.01196003	-32.29	-24.16	-33.43	52.38
10.02146292	-39.02	-28.2	-35.44	59.78
10.03141284	-47.96	-33.83	-34.74	68.2
10.0419569	-59.35	-44.38	-32.6	80.96
10.06858587	-68.33	-59	-25.88	93.91
10.07076979	-73.89	-71.86	-16.95	104.45
10.07294488	-74.83	-81.3	-7.35	110.73
10.08051682	-75.76	-85.63	-1.97	114.35
10.09275198	-76.75	-87.05	-0.76	116.05
10.10032177	-76.93	-88.18	2.66	117.05
10.11062384	-71.22	-88.58	9.18	114.03
10.12069082	-61.49	-88.37	15.79	108.8
10.13102484	-53.07	-86.27	17.47	102.78
10.14120197	-45.57	-76.19	15.25	90.07
10.16902089	-38.4	-66.62	11.21	77.7
10.17122602	-32.62	-60.43	8.41	69.18
10.17346096	-27.37	-55.59	7.96	62.47
10.17979479	-21.95	-50.91	9.76	56.29
10.19293594	-15.91	-46.05	13.14	50.46
10.19957781	-9.69	-40.91	17.28	45.45
10.20934987	-4.08	-36.01	21.16	41.96
10.21991587	0.17	-31.44	24.14	39.63
10.23022795	2.44	-27.7	25.55	37.76
10.23976803	2.17	-24.76	24.23	34.71
10.2669189	0.03	-23.08	20.34	30.76
10.26905298	-3.01	-22.01	14.98	26.79
10.27114296	-6	-21.39	9.8	24.28
10.27926493	-8.44	-21.25	5.84	23.59
10.28866196	-10.66	-21.16	2.77	23.85
10.29842687	-12.37	-20.88	0.45	24.27
10.30907679	-13.41	-20.58	-1.05	24.58
10.31896591	-13.65	-20.05	-1.93	24.33
10.3286767	-13.32	-19.55	-2.48	23.78
10.33963585	-12.32	-18.91	-2.91	22.75
10.34904099	-10.93	-18.21	-3.31	21.49
10.37048101	-9.28	-17.54	-3.3	20.11
10.372962	-7.72	-16.82	-2.94	18.73
10.37791395	-6.32	-15.99	-2.27	17.34
10.38797998	-5.19	-14.68	-1.45	15.63
10.39809489	-4.17	-13.11	-0.19	13.75
10.40860701	-3.54	-11.91	1	12.46
10.41794586	-4.21	-11.37	1.14	12.17
10.4283669	-5.68	-10.64	0.17	12.06
10.43861198	-7.63	-9.39	-1.97	12.25
10.44871092	-8.8	-7.6	-4.53	12.47
10.47077274	-9.13	-5.29	-7.38	12.87
10.47304487	-8.54	-3.22	-8.93	12.76
10.47705698	-7.37	-1.59	-9.97	12.49
10.48743081	-6.78	-0.52	-10.1	12.17
10.49757385	-5.62	-0.73	-8.31	10.05
10.5070467	-4.65	-1.23	-6.25	7.88
10.51748276	-3.94	-1.3	-4.32	5.98
10.52781987	-3.22	-1.67	-2.29	4.28
10.53768778	-2.44	-1.75	-0.68	3.07
10.5481298	-2.13	-1.97	0.07	2.9
10.56753588	-2.2	-2.55	0.52	3.4
10.56992483	-3	-2.69	0.74	4.09
10.57676888	-3.99	-2.15	0	4.53
10.58660483	-4.35	-1.83	-0.94	4.81
10.59663486	-4.51	-1.82	-0.6	4.9
10.60653687	-4.38	-1.23	-0.4	4.56
10.6170609	-4.04	-0.94	-0.67	4.2
10.62669802	-4.29	-0.63	-1.06	4.46
10.63687372	-4.29	0.39	-2.1	4.79
10.64736986	-4.37	0.9	-2.8	5.26
10.67240572	-4.43	1.26	-3.08	5.54
10.67471886	-3.88	1.19	-3.18	5.15
10.67655802	-3.39	0.68	-2.58	4.31
10.69624281	-2.73	0.21	-1.8	3.27
10.69817495	-2.18	0	-1.16	2.46
10.71072292	-1.92	0	-0.84	2.09
10.71580791	-1.88	0.14	-0.8	2.04
10.72767496	-1.93	0.11	-0.32	1.95
10.73604989	-1.82	-0.03	0.44	1.87
10.74625683	-1.72	-0.05	0.88	1.93
10.77722168	-1.76	-0.11	1.16	2.11
10.7795198	-1.88	-0.24	1.42	2.36
10.78140688	-1.98	-0.05	1.36	2.4
10.79597282	-1.94	-0.01	1.02	2.19
10.79789495	-1.82	-0.06	0.84	2
10.81009984	-1.72	0.24	0.53	1.81
10.81457591	-1.73	0.26	0.02	1.74
10.82661986	-1.74	0.05	-0.21	1.75
10.83538985	-1.42	0.25	-0.56	1.54
10.84538484	-1.14	0.54	-0.94	1.57
10.87368202	-1.49	0.42	-1.06	1.87
10.87581778	-1.72	0.06	-0.71	1.86
10.87763071	-1.74	-0.39	-0.07	1.78
10.89592075	-1.58	-0.75	0.63	1.85
10.8978138	-1.36	-0.57	0.87	1.71
10.91228676	-1.76	-0.2	0.2	1.78
10.91464376	-1.95	0.11	-1.19	2.28
10.92624569	-1.56	0.15	-2.28	2.76
10.93418694	-1.17	-0.13	-2.74	2.98
10.94491577	-1.17	-0.43	-2.61	2.89
10.97110176	-1.46	-0.41	-2.05	2.54
10.97341084	-1.88	-0.27	-1.18	2.23
10.97532797	-2.46	-0.04	-0.35	2.48
10.98339891	-2.84	0.3	0.25	2.86
10.9935689	-3.3	0.54	0.56	3.39
11.00385475	-3.69	0.93	0.19	3.81
11.01383686	-2.9	0.87	-0.88	3.15
11.02390575	-1.81	0.38	-1.87	2.63
11.0339098	-0.95	-0.06	-2.38	2.56
11.04419374	-0.46	-0.42	-2.64	2.71
11.07322979	-0.78	-0.66	-2.3	2.51
11.07535601	-1.47	-0.58	-1.74	2.35
11.07739782	-2.3	-0.13	-1.51	2.75
11.09591293	-2.93	0.3	-1.5	3.3
11.09783983	-3.33	0.57	-1.58	3.72
11.1124289	-3.29	0.8	-1.68	3.77
11.11462784	-2.99	0.82	-1.74	3.55
11.12700391	-2.75	0.58	-1.72	3.29
11.1326437	-2.62	0.37	-1.51	3.04
11.14765191	-2.56	0.33	-1.24	2.86
11.15295696	-2.62	0.27	-1	2.81
11.17932987	-2.66	0.17	-0.93	2.82
11.18132281	-2.81	0.18	-0.93	2.96
11.18335199	-3.04	0.33	-0.91	3.19
11.19566202	-3.12	0.54	-0.88	3.28
11.20168185	-3.06	0.62	-0.88	3.24
11.21193171	-2.9	0.58	-0.81	3.06
11.22228384	-2.79	0.47	-0.71	2.91
11.23196983	-2.87	0.52	-0.72	3
11.24275589	-3.03	0.81	-0.77	3.22
11.2521708	-3.12	1.12	-0.85	3.42
11.27377081	-3.05	1.2	-0.92	3.4
11.27609873	-2.8	1.08	-1.03	3.17
11.28157091	-2.5	1.01	-1.06	2.89
11.29605484	-2.19	0.96	-1.02	2.59
11.30098772	-1.82	0.85	-1.11	2.29
11.31157875	-1.52	0.75	-1.18	2.06
11.32162571	-1.17	0.73	-1.06	1.73
11.33190775	-0.88	0.77	-0.89	1.46
11.34216499	-0.67	0.8	-0.71	1.26
11.35157084	-0.54	0.8	-0.6	1.13
11.37550688	-0.47	0.84	-0.51	1.08
11.37786579	-0.35	0.87	-0.38	1.01
11.3806169	-0.17	0.8	-0.32	0.87
11.39632583	0.03	0.65	-0.25	0.69
11.40025473	0.19	0.55	-0.17	0.6
11.41265678	0.34	0.53	-0.1	0.63
11.42086887	0.45	0.56	-0.07	0.72
11.43082094	0.44	0.54	-0.1	0.7
11.44129586	0.35	0.51	-0.13	0.63
11.45104289	0.24	0.57	-0.21	0.65
11.47411585	0	0.73	-0.34	0.8
11.476408	-0.22	0.87	-0.43	0.99
11.47975588	-0.39	0.93	-0.5	1.12
11.49596882	-0.48	0.98	-0.56	1.22
11.49954796	-0.59	1.02	-0.61	1.32
11.51055098	-0.74	1.07	-0.61	1.43
11.51990581	-0.7	1.1	-0.59	1.43
11.52976179	-0.59	1.05	-0.57	1.33
11.54091883	-0.5	0.95	-0.51	1.18
11.55018091	-0.42	0.86	-0.4	1.03
11.57628489	-0.34	0.79	-0.29	0.9
11.57854795	-0.35	0.69	-0.18	0.79
11.58043289	-0.47	0.66	-0.08	0.81
11.59602189	-0.48	0.69	-0.02	0.84
11.59900475	-0.43	0.63	-0.02	0.76
11.61133671	-0.4	0.54	-0.04	0.67
11.6192019	-0.34	0.46	-0.02	0.57
11.62893081	-0.29	0.41	-0.02	0.5
11.6401577	-0.38	0.38	-0.03	0.53
11.64955902	-0.58	0.39	-0.03	0.69
11.68247581	-0.88	0.52	-0.04	1.02
11.6847508	-1.07	0.71	-0.05	1.28
11.68662882	-1.14	0.78	-0.09	1.38
11.69447899	-1.2	0.77	-0.14	1.43
11.69832683	-1.2	0.75	-0.19	1.42
11.71139789	-1.14	0.74	-0.25	1.38
11.71809292	-1.1	0.73	-0.32	1.35
11.728158	-1.05	0.7	-0.35	1.3
11.7384398	-0.95	0.69	-0.32	1.21
11.74871969	-0.85	0.68	-0.28	1.12
11.77777791	-0.78	0.73	-0.26	1.09
11.77997494	-0.72	0.76	-0.26	1.07
11.78168488	-0.72	0.78	-0.27	1.09
11.79626083	-0.75	0.77	-0.24	1.1
11.79811883	-0.81	0.86	-0.24	1.2
11.81416988	-0.74	0.96	-0.24	1.23
11.81761074	-0.65	0.93	-0.24	1.15
11.82771587	-0.64	0.9	-0.26	1.13
11.83817577	-0.64	0.93	-0.24	1.15
11.84800196	-0.68	0.99	-0.15	1.21
11.87906289	-0.72	1.03	-0.01	1.25
11.88130474	-0.73	0.87	0.11	1.14
11.88318181	-0.71	0.67	0.26	1.01
11.89472771	-0.57	0.55	0.35	0.86
11.89664984	-0.29	0.5	0.38	0.69
11.91154575	-0.09	0.62	0.47	0.78
11.9164989	-0.06	0.72	0.53	0.89
11.92768383	-0.39	0.75	0.45	0.95
11.93700171	-0.63	0.69	0.44	1.03
11.94713187	-0.51	0.86	0.37	1.06
11.95718479	-0.3	1.1	0.17	1.15
11.97850275	-0.32	0.94	0.17	1
11.98049188	-0.34	0.75	0.46	0.94
11.98591471	-0.5	0.67	0.84	1.18
11.99604082	-0.77	0.62	1.25	1.59
12.00590491	-1.01	0.61	1.65	2.02
12.01671171	-1.09	0.31	1.87	2.18
12.02591085	-1.45	-0.16	2.07	2.53
12.036654	-1.81	-0.84	2.15	2.93
12.04643488	-1.46	-1.62	1.68	2.75
12.05698776	-1.35	-2.47	0.95	2.97
12.0791769	-2.16	-3.37	0.77	4.07
12.08127189	-3.9	-4.48	-0.26	5.94
12.08519268	-6.85	-6.35	-3.01	9.81
12.09639597	-9.75	-9.58	-8.33	16
12.10580873	-11.37	-12.54	-15.1	22.68
12.11607981	-13.64	-14.23	-14.01	24.18
12.12735391	-16.48	-17.04	-16.36	28.8
12.13607883	-17.65	-19.39	-20.73	33.42
12.14554501	-17.94	-20.34	-31.63	41.66
12.15607595	-20.04	-18.95	-41.36	49.71
12.1766367	-24.61	-12.14	-44.87	52.59
12.17875481	-29.02	-8.39	-42	51.73
12.18486071	-28.76	-11.07	-36.89	48.06
12.19584179	-27.6	-14.07	-33.15	45.37
12.20459795	-29.56	-17.2	-32.35	47.07
12.2151618	-31.86	-22.51	-29.9	49.15
12.22503781	-35.44	-28.81	-25.01	52.07
12.23578596	-42.35	-35.01	-20.68	58.71
12.24530602	-50.72	-42.26	-19.09	68.72
12.25587082	-58.81	-49.59	-18.89	79.21
12.2749567	-69.64	-57.59	-18.25	92.19
12.27706385	-73.05	-65.8	-16.44	99.68
12.28453302	-74.02	-79.15	-15.48	109.46
12.29615498	-75.51	-86.58	-10.86	115.39
12.30391288	-76.92	-87.59	-6.68	116.76
12.3137989	-78.29	-88.53	-4.31	118.26
12.32445002	-79.29	-88.59	0.28	118.89
12.33462095	-71.61	-87.91	7.76	113.65
12.3438189	-56.81	-86.83	10.58	104.3
12.35439682	-46.31	-84.23	10.66	96.71
12.38193369	-39.27	-74.2	8.72	84.4
12.38403797	-33.72	-66.76	4.31	74.91
12.38615489	-28.13	-63.44	0.46	69.39
12.39634085	-22.04	-60.28	0.73	64.18
12.4033258	-14.6	-57.53	4.81	59.54
12.41372871	-4.54	-53.2	11.88	54.69
12.42349982	5.42	-48.6	21.07	53.24
12.43347597	12.25	-43.51	29.48	53.96
12.44399977	13.07	-38.43	33.29	52.49
12.4538939	7.97	-34.8	30.6	47.02
12.48009181	0.32	-31.57	21.6	38.25
12.48246574	-5.86	-29.65	12.48	32.69
12.48439074	-10.3	-29.18	7.65	31.87
12.49527597	-13.45	-29.32	4.78	32.61
12.50319886	-15.57	-30.17	2.84	34.06
12.51232576	-17.29	-31.75	1.09	36.16
12.52274489	-18.78	-33.79	-1.02	38.67
12.53266788	-19.3	-34.88	-2.75	39.95
12.5433917	-19.46	-34.81	-3.94	40.07
12.55335903	-20.03	-33.93	-4.72	39.68
12.57640791	-20.8	-32.27	-5.02	38.71
12.57869673	-21.47	-29.73	-4.89	36.99
12.58149099	-20.19	-26.2	-4.83	33.42
12.5970118	-16.98	-22.87	-4.66	28.86
12.60145998	-13.71	-20.64	-4.09	25.11
12.61173201	-11.99	-19.41	-2.2	22.92
12.6218667	-11.76	-18.67	0.28	22.06
12.63175392	-13	-16.71	1.12	21.2
12.64236593	-13.52	-14.79	1.04	20.06
12.65205097	-12.49	-13.97	1.24	18.78
12.67919779	-11.23	-13.61	2.14	17.77
12.68146682	-10.83	-13.65	3.29	17.73
12.68339968	-12.23	-13.45	4.27	18.67
12.69595671	-16.21	-10.71	4.28	19.89
12.70071268	-18.6	-6.88	3.81	20.19
12.71192169	-18.03	-5.57	3.18	19.13
12.72162294	-16.41	-6.22	3.36	17.86
12.73173094	-15.43	-7.28	4.05	17.53
12.74159384	-15.34	-7.46	4.73	17.7
12.75136089	-15.61	-7.09	4.77	17.79
12.76122689	-16.62	-5.34	3.32	17.76
12.78077173	-18.28	-2.6	1.13	18.49
12.7829268	-18.97	-0.97	-0.76	19
12.7910068	-18.19	-0.81	-2.85	18.42
12.80081487	-17.57	-1.45	-3.54	17.98
12.81114388	-17.39	-2.17	-2.79	17.74
12.82054591	-17.13	-1.88	-2.51	17.41
12.83084679	-18.09	0.02	-3.06	18.34
12.84106302	-17.53	2.08	-4.56	18.23
12.85088301	-15.59	3.1	-6.47	17.16
12.86012268	-13.24	3.19	-8.1	15.84
12.88043284	-11.7	2.64	-8.58	14.74
12.88248682	-10.75	2.44	-7.87	13.54
12.89028072	-9.9	2.48	-6.32	12
12.89955902	-9.28	2.13	-4.96	10.73
12.90943384	-8.79	1.66	-4.09	9.83
12.91928291	-8.54	2.21	-3.51	9.49
12.92956591	-8.26	2.97	-3.33	9.38
12.9397788	-7.95	3.12	-3.14	9.09
12.94997978	-7.29	3.04	-2.88	8.4
12.96020174	-6.07	2.74	-2.67	7.17
12.98210573	-4.9	2.28	-2.44	5.92
12.98416185	-4.23	1.85	-2.18	5.1
12.9888258	-3.86	1.65	-1.81	4.57
12.99870181	-3.51	1.46	-1.25	4
13.00869584	-3.19	1.05	-0.82	3.45
13.01833487	-3.15	0.65	-1.23	3.44
13.02890778	-2.54	0.71	-1.24	2.91
13.03959489	-2.01	1.18	-0.94	2.51
13.04906082	-2.1	1.42	-1	2.72
13.05912876	-2.42	1.33	-1.41	3.1
13.08091974	-2.57	1.33	-1.78	3.39
13.08285999	-2.38	1.38	-1.79	3.28
13.08810687	-2.08	1.48	-1.58	3
13.09801888	-1.94	1.47	-1.39	2.8
13.10805178	-2.2	1.43	-1.22	2.89
13.11813974	-2.79	1.38	-0.99	3.26
13.12861991	-3	1.15	-0.67	3.28
13.1383338	-2.74	0.96	-0.54	2.95
13.14837885	-2.33	0.94	-0.66	2.59
13.15815091	-1.98	0.77	-0.97	2.33
13.18592381	-1.77	0.58	-1.36	2.3
13.18801284	-1.73	0.57	-1.57	2.4
13.19004202	-1.73	0.71	-1.48	2.38
13.19706082	-1.72	0.74	-1.22	2.23
13.20709372	-1.67	0.7	-0.9	2.02
13.21680975	-1.51	0.71	-0.62	1.78
13.22721291	-1.41	0.78	-0.31	1.64
13.23771882	-1.34	0.95	-0.24	1.66
13.2476368	-1.22	1.08	-0.14	1.63
13.25791168	-1.26	1.01	0.03	1.61
13.28862786	-1.33	1.09	0.46	1.78
13.29071569	-1.36	0.43	0.34	1.46
13.29275799	-1.22	0	-0.18	1.23
13.29618287	-0.61	0.37	-0.02	0.71
13.30615377	0.38	0.25	0.52	0.69
13.31665373	0.76	0.37	0.65	1.06
13.326437	0.21	-0.09	-0.36	0.42
13.33652973	0.01	0.68	0.34	0.76
13.34653473	0.3	1.03	0.85	1.36
13.35733175	0.43	0.38	0.65	0.86
13.38586688	0.38	-0.14	0.6	0.72
13.38787699	0.54	-0.16	0.99	1.13
13.39003897	0.68	0.09	1.07	1.27
13.39541984	0.29	0.52	1.15	1.29
13.40595889	-0.09	0.79	1.27	1.49
13.4155519	-0.28	0.94	1.16	1.51
13.42580986	-0.25	0.94	1.02	1.4
13.43564081	0.03	0.79	0.64	1.01
13.44686699	0.32	0.7	0.16	0.78
13.4560318	0.53	0.65	-0.27	0.88
13.48300481	0.67	0.54	-0.48	0.98
13.48509169	0.55	0.43	-0.25	0.74
13.48716784	0.29	0.32	0.19	0.47
13.49541378	-0.03	0.12	0.51	0.52
13.50502586	-0.07	-0.08	0.88	0.88
13.51483488	0.22	-0.26	1	1.05
13.52467299	0.52	-0.39	0.88	1.09
13.53512573	0.65	-0.4	0.73	1.05
13.54550982	0.69	-0.39	0.65	1.02
13.55513191	0.76	-0.31	0.7	1.07
13.56568098	0.63	-0.13	0.54	0.83
13.58870482	0.35	0.17	0.3	0.49
13.59094691	0.35	0.4	0.04	0.53
13.59427595	0.43	0.57	-0.04	0.71
13.60429788	0.29	0.67	-0.19	0.75
13.61394382	-0.16	0.83	-0.23	0.87
13.62437391	-0.44	1.01	-0.13	1.1
13.63465381	-0.46	0.96	-0.12	1.07
13.64444494	-0.57	0.94	-0.31	1.14
13.65502977	-0.73	1.02	-0.37	1.3
13.66488791	-0.63	1.04	-0.28	1.24
13.68919992	-0.37	0.87	-0.06	0.94
13.69159269	-0.03	0.66	0.2	0.69
13.69335794	0.3	0.61	0.39	0.78
13.7035799	0.52	0.52	0.29	0.79
13.71318984	0.53	0.44	0.16	0.7
13.72360277	0.42	0.36	0.05	0.55
13.73346591	0.23	0.37	-0.04	0.43
13.74411988	0.06	0.5	-0.12	0.51
13.7534709	-0.03	0.6	-0.36	0.7
13.76359582	-0.12	0.73	-0.56	0.92
13.78421879	-0.21	0.92	-0.58	1.1
13.78622985	-0.27	0.94	-0.61	1.15
13.79257298	-0.29	0.83	-0.64	1.08
13.80268097	-0.31	0.83	-0.68	1.11
13.81282187	-0.3	0.84	-0.44	0.99
13.82285285	-0.37	0.45	-0.08	0.58
13.8332777	-0.49	0.16	0.06	0.51
13.84329581	-0.59	0.3	0.2	0.69
13.85306787	-0.49	0.67	0.6	1.02
13.86376286	-0.12	0.9	1.28	1.56
13.88786077	0.21	1.08	1.99	2.27
13.89000893	0.1	1.05	2.34	2.56
13.89211702	-0.26	0.68	2.05	2.17
13.90237379	-0.28	0.35	1.28	1.35
13.91182184	0.05	0.18	0.59	0.61
13.92213988	0.42	0.28	0.27	0.57
13.93186092	0.45	0.5	-0.59	0.89
13.94267178	0.27	0.61	-1.12	1.3
13.95256472	0.13	0.73	-1.07	1.3
13.9627018	-0.04	0.91	-1	1.35
13.99390697	-0.16	1.02	-0.74	1.27
13.99591494	-0.21	1.07	-0.35	1.14
13.99798989	-0.29	0.94	0	0.98
14.00097585	-0.25	0.53	0.38	0.69
14.01092386	0	0.17	0.82	0.83
14.02122593	0.26	0	1.23	1.25
14.03109884	0.41	0.02	1.31	1.37
14.04160786	0.45	0.08	1.13	1.21
14.05163884	0.44	0.24	0.78	0.92
14.061625	0.25	0.57	0.44	0.76
14.08921981	0.25	0.56	0.04	0.61
14.09180784	0.45	0.45	-0.22	0.67
14.09443188	0.45	0.55	-0.36	0.79
14.10037684	0.26	0.58	-0.51	0.81
14.11036682	0.21	0.62	-0.31	0.72
14.12048292	0.05	0.74	-0.1	0.74
14.13016391	-0.08	0.72	0.27	0.77
14.14059591	-0.15	0.65	0.62	0.91
14.15028477	-0.19	0.49	0.74	0.9
14.16099286	-0.13	0.37	0.72	0.81
14.19043875	-0.03	0.41	0.67	0.78
14.19252086	-0.06	0.61	0.54	0.81
14.19436979	-0.17	0.78	0.31	0.85
14.19961596	0	0.61	0.23	0.65
14.20938873	0.05	0.5	0.33	0.6
14.21974897	-0.02	0.51	0.52	0.72
14.22982693	-0.14	0.45	0.6	0.76
14.23972487	0.02	0.33	0.59	0.67
14.25024796	0.23	0.26	0.49	0.6
14.26031089	0.43	0.13	0.15	0.47
14.29013181	0.62	0.18	-0.21	0.67
14.29216981	0.71	0.31	-0.29	0.82
14.29400587	0.54	0.39	-0.17	0.68
14.29879999	0.21	0.44	0.15	0.51
14.30883789	-0.07	0.49	0.48	0.68
14.31888199	-0.16	0.46	0.77	0.91
14.32906485	-0.07	0.25	0.81	0.85
14.33916473	0.15	0.15	0.63	0.66
14.34882975	0.35	0.16	0.45	0.59
14.3600297	0.44	0.2	0.28	0.55
14.36947393	0.33	0.35	0.22	0.52
14.39212799	0.04	0.5	0.32	0.59
14.39435983	-0.15	0.62	0.46	0.78
14.39804983	-0.21	0.66	0.51	0.86
14.41410875	-0.14	0.54	0.51	0.75
14.41789985	0	0.43	0.36	0.56
14.4287219	0.16	0.4	0.08	0.43
14.43839288	0.23	0.42	-0.1	0.48
14.44806576	0.22	0.41	-0.15	0.48
14.45889997	0.21	0.47	-0.17	0.54
14.46839571	0.32	0.61	-0.17	0.7
14.49400902	0.22	0.6	-0.08	0.64
14.4962728	0.25	0.38	-0.11	0.46
14.49808884	0.55	0.35	-0.32	0.72
14.50738096	0.51	0.32	-0.36	0.7
14.5175209	0.32	0.26	-0.16	0.44
14.52765584	0.23	0.22	0.21	0.38
14.53779078	0.04	0.44	0.75	0.87
14.54764485	-0.05	0.5	1.35	1.44
14.55831885	-0.24	0.45	1.59	1.66
14.56817985	-0.48	0.59	1.44	1.62
14.5908289	-0.45	0.75	1.08	1.38
14.59308791	-0.28	0.74	0.63	1.01
14.59660673	-0.12	0.72	0.29	0.78
14.61457777	-0.1	0.68	0.1	0.69
14.61647391	-0.29	0.75	0.27	0.84
14.62935281	-0.57	0.89	0.58	1.2
14.6372118	-0.66	0.82	0.66	1.24
14.64671087	-0.56	0.65	0.46	0.97
14.65741181	-0.23	0.53	0.14	0.59
14.6670239	0.23	0.48	-0.11	0.54
14.69007969	0.54	0.52	-0.14	0.76
14.69234896	0.64	0.46	-0.13	0.79
14.69589591	0.5	0.44	-0.17	0.68
14.7055378	0.23	0.44	-0.15	0.51
14.71622896	-0.01	0.41	0.01	0.41
14.72615576	-0.07	0.27	0.22	0.35
14.73632002	0.01	0.25	0.37	0.44
14.74649668	0.08	0.3	0.44	0.53
14.75632787	0.16	0.32	0.41	0.54
14.76651382	0.3	0.22	0.22	0.43
14.79583383	0.4	0.15	0.04	0.42
14.79807997	0.45	0.17	0.03	0.48
14.79994774	0.49	0.19	0.24	0.57
14.81410694	0.39	0.18	0.52	0.67
14.81598783	0.22	0.08	0.84	0.87
14.82891989	0.1	0.1	1.07	1.07
14.83540988	0.03	0.11	1.17	1.17
14.84576988	0.09	0.17	1.11	1.12
14.85562587	0.15	0.28	0.95	1
14.86569691	0.18	0.42	0.67	0.81
14.89532995	0.31	0.38	0.38	0.62
14.89766788	0.49	0.29	0.19	0.6
14.89954782	0.59	0.22	0.27	0.68
14.91536283	0.6	0.15	0.63	0.88
14.91715193	0.6	0.07	1.27	1.4
14.92700386	0.58	-0.08	2.03	2.11
14.93427992	0.38	-0.26	2.43	2.47
14.94530296	0.01	-0.27	2.37	2.38
14.95474195	-0.32	-0.15	2.01	2.04
14.96470785	-0.77	0.06	1.46	1.65
14.995121	-0.91	0.29	1.06	1.42
14.99735403	-0.81	0.58	0.94	1.36
14.99923372	-0.75	0.63	1.04	1.42
15.01452875	-0.91	0.35	1.13	1.49
15.01641703	-1.59	-0.07	1.15	1.96
15.03040981	-2.47	-0.64	1.29	2.85
15.03337789	-3.15	-1.03	1.48	3.62
15.04581976	-3.76	-1.95	2	4.68
15.05463386	-4.21	-3.32	2.75	6.02
15.06433988	-4.81	-4.24	3.14	7.13
15.09328985	-7.92	-5.35	2.42	9.85
15.09559393	-13.17	-6.55	0.07	14.7
15.09752488	-17.27	-8.16	-3.38	19.39
15.11482477	-19.81	-10.1	-7.17	23.36
15.1168437	-22.58	-10.23	-11.73	27.42
15.12889576	-25.38	-10.38	-17.87	32.72
15.13327384	-27.1	-10.28	-23.84	37.52
15.14515972	-28.82	-9.46	-28.34	41.51
15.15305281	-31.09	-9.93	-30.36	44.57
15.16342592	-34.14	-10.99	-29.01	46.12
15.17364287	-37.79	-11.31	-26.43	47.48
15.19581795	-43.01	-10.97	-24.31	50.6
15.19794083	-46.33	-10.72	-22.82	52.74
15.20291471	-48.72	-12.13	-21.02	54.42
15.21446896	-50.02	-14.32	-17.32	54.83
15.22200871	-50.24	-16.95	-12.53	54.48
15.23285484	-52.31	-22.56	-7.76	57.49
15.24348497	-57.64	-35.1	-2.99	67.55
15.25300288	-61.81	-51.13	4.98	80.37
15.26304197	-62.18	-67.59	18.98	93.78
15.27267075	-54.79	-69.71	30.94	93.9
15.29208279	-53.52	-65.64	27.37	89
15.29418278	-58.39	-69.57	16.6	92.33
15.30227375	-60.91	-79.14	12	100.58
15.313622	-56.01	-85.1	12.88	102.68
15.32205391	-49.41	-85.37	13.11	99.5
15.3315618	-42.5	-80.52	12.72	91.93
15.34215975	-36.66	-73.72	10.62	83.01
15.35237074	-32.15	-67.53	7.77	75.19
15.36198997	-27.91	-61.63	4.62	67.81
15.37216091	-24.47	-58.3	1.72	63.25
15.39078689	-19.13	-53.58	-0.02	56.89
15.39327478	-14.68	-47.34	-0.28	49.56
15.40117502	-12.64	-43.5	1.43	45.32
15.41166592	-11.5	-40.47	4.84	42.34
15.42090583	-9.75	-37.29	8.4	39.44
15.4312439	-6.4	-34.59	10.78	36.79
15.44120789	-2.31	-32.39	13.2	35.05
15.45156193	1.57	-30.14	15.53	33.94
15.46192789	3.95	-28.34	16.61	33.08
15.47142482	3.9	-27.83	15.72	32.19
15.49239182	1.43	-27.34	12.65	30.15
15.49481988	-2.08	-26.07	8.54	27.51
15.50031781	-5.5	-24.83	4.99	25.91
15.51508093	-8.4	-24.3	2.56	25.83
15.51985073	-10.51	-23.94	1.11	26.16
15.53033972	-11.97	-23.17	0.25	26.08
15.53998685	-12.86	-22.62	-0.32	26.02
15.550951	-13.24	-22.38	-0.64	26.01
15.56079769	-13.08	-22.15	-0.76	25.73
15.57109499	-12.7	-21.97	-0.69	25.38
15.60205483	-12	-21.32	-0.28	24.46
15.60431671	-11.15	-20.22	0.37	23.09
15.6062007	-10.59	-19.58	0.79	22.27
15.61196089	-10.25	-19.34	1.5	21.93
15.6189959	-10.41	-19.09	2.42	21.87
15.62922883	-11.05	-18.42	3.09	21.7
15.63901186	-12.1	-17.11	3.54	21.25
15.64933586	-13.43	-15.61	3.33	20.85
15.65904284	-13.98	-13.52	2.36	19.59
15.66987586	-13.53	-11.19	1.1	17.59
15.69897699	-12.36	-9.85	0.1	15.8
15.70121789	-11.32	-9.27	-0.15	14.63
15.70312595	-10.92	-8.97	0.52	14.14
15.7128768	-10.97	-9.16	2	14.43
15.71849203	-11.23	-8.84	2.57	14.52
15.72866297	-11.77	-8.14	2.08	14.46
15.73855782	-12.51	-7.17	1.78	14.52
15.74886894	-13.65	-5.98	1.63	14.99
15.75960088	-14.84	-5.13	2.01	15.82
15.7690208	-16.37	-4.53	2.56	17.17
15.79726171	-18.29	-2.82	2.9	18.73
15.79956388	-18.66	-0.36	2.16	18.78
15.80147386	-17.04	0.83	0.76	17.07
15.81514788	-14.64	-0.36	-0.55	14.65
15.81771088	-12.65	-2.02	-0.69	12.82
15.82977581	-11.55	-2.72	-0.68	11.88
15.83788395	-10.86	-2.83	-0.79	11.25
15.84862781	-10.32	-2.38	-0.96	10.63
15.85773373	-10.03	-2.02	-1.12	10.29
15.86860991	-10.23	-2.01	-0.84	10.45
15.89490581	-11.11	-1.47	-0.13	11.2
15.89718294	-11.69	-0.7	0.48	11.72
15.89909482	-11.57	0.08	1.03	11.61
15.91492701	-11.14	0.87	1.3	11.24
15.91699481	-10.34	1.6	0.88	10.5
15.92889595	-9.76	1.87	-0.24	9.94
15.9371767	-9.52	0.96	-1.13	9.63
15.94707084	-9.05	-0.47	-1.54	9.19
15.95759082	-8.22	-0.97	-1.93	8.49
15.96775985	-7.28	-0.62	-2.02	7.58
15.97767401	-6.62	-0.08	-1.86	6.87
15.99978399	-6.48	0.51	-1.55	6.68
16.00187778	-6.88	1.18	-1.24	7.08
16.00657082	-7.48	1.86	-1.02	7.77
16.01607585	-7.69	2.41	-0.73	8.09
16.02627897	-7.33	2.55	-0.53	7.77
16.03661776	-6.64	2.3	-0.45	7.04
16.04651189	-5.91	1.78	-0.33	6.18
16.05700684	-5.22	1.16	-0.11	5.34
16.06713295	-4.5	0.75	0.06	4.56
16.07647896	-3.95	0.56	0.09	3.99
16.0995059	-3.57	0.51	0.11	3.6
16.10162973	-3.24	0.52	0.12	3.28
16.1056478	-3.01	0.6	0.06	3.06
16.11531591	-2.91	0.77	-0.04	3.01
16.12602377	-2.79	1	-0.11	2.96
16.1353159	-2.7	1.17	-0.19	2.94
16.14505196	-2.75	1.19	-0.19	3
16.1556139	-2.74	1.07	-0.02	2.94
16.16560793	-2.56	0.91	0.21	2.72
16.1762867	-2.41	0.86	0.4	2.58
16.19867277	-2.34	0.9	0.61	2.58
16.20042896	-2.32	0.9	0.89	2.64
16.20433688	-2.4	0.85	1.12	2.78
16.21438694	-2.36	0.77	1.17	2.74
16.22444582	-2.27	0.65	1.23	2.66
16.23520184	-2.17	0.61	1.14	2.52
16.24459171	-2.12	0.8	0.88	2.43
16.25572991	-2.14	0.99	0.58	2.42
16.26490974	-2.07	1.14	0.17	2.36
16.27548289	-2.01	1.25	-0.29	2.38
16.29596996	-1.97	1.23	-0.8	2.45
16.29797602	-1.92	1.21	-1.35	2.64
16.30354977	-1.85	1.26	-1.76	2.84
16.31425381	-1.81	1.37	-2.07	3.07
16.323493	-1.79	1.44	-2.29	3.24
16.33346796	-1.72	1.47	-2.5	3.37
16.34387302	-1.74	1.53	-2.65	3.52
16.35375786	-1.82	1.57	-2.66	3.58
16.36447668	-1.82	1.61	-2.59	3.55
16.37394285	-1.8	1.62	-2.45	3.44
16.39887476	-1.74	1.53	-2.18	3.18
16.40099382	-1.6	1.37	-1.85	2.8
16.4031167	-1.42	1.19	-1.46	2.35
16.41436577	-1.24	0.99	-1.09	1.92
16.42289877	-1.07	0.83	-0.72	1.53
16.43273878	-0.93	0.69	-0.38	1.21
16.44312882	-0.81	0.6	-0.1	1.01
16.45308185	-0.71	0.46	0.15	0.85
16.46286201	-0.6	0.33	0.39	0.78
16.47336292	-0.39	0.26	0.63	0.78
16.50236702	-0.19	0.19	0.83	0.87
16.50447583	-0.1	0.05	1.05	1.05
16.50649595	0.03	-0.03	1.28	1.28
16.51267195	0.1	-0.06	1.42	1.42
16.52219677	0.12	-0.06	1.55	1.55
16.53208685	0.05	-0.01	1.62	1.62
16.54269075	0.03	0.04	1.57	1.57
16.55286694	0.08	0.13	1.5	1.5
16.56270599	0.05	0.13	1.37	1.37
16.57292485	-0.14	0.13	1.2	1.21
16.59895682	-0.26	0.19	1.04	1.08
16.60099983	-0.25	0.22	0.83	0.89
16.60293484	-0.19	0.22	0.68	0.73
16.61427975	-0.19	0.31	0.53	0.64
16.62136984	-0.33	0.49	0.44	0.73
16.6312449	-0.54	0.69	0.39	0.95
16.64173985	-0.61	0.82	0.33	1.07
16.65151501	-0.68	0.79	0.32	1.09
16.66172385	-0.73	0.71	0.4	1.09
16.67192602	-0.66	0.71	0.5	1.09
16.7041719	-0.53	0.81	0.48	1.08
16.706357	-0.33	0.9	0.4	1.03
16.70825577	-0.17	0.95	0.28	1
16.71221495	-0.07	0.96	0.22	0.98
16.7223649	0.01	0.95	0.27	0.98
16.73202801	0.02	0.93	0.43	1.02
16.74250388	-0.05	0.98	0.69	1.19
16.75249577	-0.04	0.96	0.99	1.37
16.76277494	-0.16	0.85	1.21	1.48
16.77264071	-0.43	0.74	1.44	1.67
16.8028388	-0.46	0.46	1.65	1.77
16.80514789	-0.23	-0.04	1.67	1.68
16.80704975	0.17	-0.44	1.28	1.36
16.81452584	0.61	-0.45	0.6	0.96
16.82132769	0.99	-0.12	-0.05	0.99
16.83132982	1.22	0.27	-0.51	1.34
16.84190083	1.15	0.65	-0.74	1.51
16.85151386	0.71	0.98	-0.71	1.4
16.8621397	0.16	1.16	-0.48	1.26
16.87180185	-0.36	1.13	-0.28	1.21
16.8823278	-0.75	0.98	-0.16	1.24
16.90463877	-0.83	0.76	0.07	1.12
16.90664768	-0.59	0.56	0.32	0.87
16.91063976	-0.34	0.42	0.43	0.69
16.92101884	-0.13	0.12	0.36	0.4
16.93077683	0.12	-0.09	0.48	0.5
16.94093084	0.2	0.31	0.91	0.98
16.9513979	0.54	0.11	0.76	0.93
16.96138382	0.77	0.43	0.7	1.12
16.97115803	1.03	0.59	0.28	1.21
16.98162985	1.22	0.7	0.01	1.4
17.00514984	1.09	0.84	-0.17	1.38
17.00717068	0.82	0.93	-0.23	1.26
17.00985289	0.56	1.01	-0.28	1.18
17.02017403	0.41	0.96	-0.27	1.07
17.03005385	0.43	0.63	-0.41	0.86
17.03993893	0.61	0.24	-0.54	0.84
17.05031681	0.88	0.18	-0.58	1.06
17.06002903	0.86	0.26	-0.52	1.03
17.07070971	0.48	0.36	-0.33	0.68
17.08043194	0.18	0.14	-0.2	0.3
17.10486603	-0.03	-0.12	0.15	0.19
17.1068697	-0.26	-0.09	0.63	0.68
17.10917783	-0.32	-0.25	0.93	1.01
17.11919284	-0.24	-0.41	1.08	1.17
17.12962294	-0.16	-0.52	1.02	1.15
17.13936591	-0.18	-0.52	0.83	0.99
17.14956093	-0.23	-0.5	0.6	0.81
17.15997696	-0.25	-0.45	0.36	0.62
17.16967487	-0.24	-0.43	0.2	0.53
17.17984986	-0.25	-0.46	0.1	0.53
17.20197988	-0.21	-0.48	0.1	0.53
17.20380783	-0.16	-0.37	0.15	0.43
17.20838594	-0.22	-0.21	0.39	0.49
17.21875381	-0.28	-0.12	0.68	0.74
17.22854781	-0.34	-0.09	0.87	0.93
17.23816085	-0.34	-0.01	0.97	1.02
17.24867201	-0.28	-0.07	0.93	0.97
17.25858688	-0.01	-0.2	0.87	0.89
17.26889277	0.25	-0.26	0.78	0.85
17.27915788	0.41	-0.29	0.7	0.86
17.30822277	0.55	-0.39	0.73	0.99
17.31019974	0.64	-0.45	0.84	1.14
17.31202078	0.63	-0.46	0.92	1.2
17.31798887	0.61	-0.33	0.98	1.2
17.32772779	0.54	-0.19	0.96	1.11
17.33788872	0.5	0.01	0.89	1.02
17.34749985	0.37	0.18	0.67	0.78
17.3577137	0.16	0.29	0.36	0.48
17.36795688	-0.01	0.49	0.05	0.49
17.37859678	0	0.65	-0.29	0.71
17.40716386	0.25	0.63	-0.24	0.71
17.40904999	0.62	0.64	-0.14	0.9
17.41110277	0.77	0.72	-0.19	1.07
17.4171629	0.72	0.7	-0.18	1.02
17.42905092	0.53	0.68	-0.23	0.89
17.43680286	0.47	0.23	-0.19	0.55
17.44699478	0.37	0.3	-0.13	0.49
17.45749903	0.11	1.01	-0.06	1.01
17.46747971	0.24	0.88	-0.08	0.91
17.47783685	0.12	0.64	-0.1	0.65
17.51151276	-0.22	0.75	0	0.78
17.51360273	-0.47	1.04	0.13	1.14
17.51567173	-0.5	1.22	0.13	1.32
17.53245687	-0.4	1.28	0.02	1.34
17.53437781	-0.28	1.25	-0.11	1.28
17.53680587	-0.19	1.12	-0.26	1.16
17.546803	-0.12	0.94	-0.26	0.98
17.55614471	-0.38	0.7	0.31	0.85
17.5659349	-0.86	0.7	0.69	1.3
17.57637596	-0.79	0.74	0.19	1.09
17.60637474	-0.9	0.85	0.04	1.23
17.60847902	-0.87	0.95	-0.19	1.3
17.61052084	-0.85	0.96	-0.52	1.38
17.61551285	-0.55	1	-0.64	1.3
17.62951589	-0.25	0.95	-0.59	1.14
17.63572598	-0.21	0.8	-0.39	0.91
17.6467278	-0.32	0.54	-0.15	0.64
17.65604281	-0.44	0.2	0.16	0.5
17.66596985	-0.27	0.26	0.53	0.64
17.6762259	-0.13	0.55	0.48	0.74
17.68626595	-0.07	0.75	0.24	0.79
17.70801187	-0.13	0.77	-0.02	0.78
17.71026182	-0.3	0.76	-0.28	0.86
17.71491003	-0.59	0.65	-0.44	0.98
17.7247858	-1.22	0.61	-1.07	1.73
17.73470592	-1.16	0.48	-0.66	1.41
17.74498391	-0.68	0.49	-0.5	0.97
17.75508976	-0.46	0.7	-0.67	1.07
17.7646029	0.03	0.47	-0.6	0.76
17.7760148	0.3	0.24	-0.67	0.77
17.78494501	0.27	0.2	-0.84	0.9
17.80746269	0.26	0.15	-0.87	0.92
17.80982089	0.18	0.06	-0.8	0.82
17.81419802	0.01	0.06	-0.59	0.59
17.8237977	-0.06	0.05	-0.29	0.3
17.83422899	-0.11	-0.04	-0.1	0.15
17.844244	-0.18	-0.03	-0.01	0.18
17.85418487	-0.33	0.06	0.05	0.33
17.8649869	-0.37	0.1	0.14	0.4
17.87457085	-0.34	0	0.17	0.38
17.88481998	-0.35	-0.11	0.06	0.37
17.90719581	-0.37	-0.16	0	0.4
17.9095118	-0.34	-0.2	0.04	0.39
17.91382289	-0.34	-0.16	0.08	0.38
17.92335486	-0.31	-0.11	0.04	0.33
17.93325996	-0.27	-0.04	0.06	0.27
17.94322872	-0.3	0.04	0.11	0.32
17.9537158	-0.31	0.1	0.26	0.41
17.9634347	-0.38	0.16	0.48	0.63
17.97373295	-0.55	0.24	0.67	0.89
17.983634	-0.76	0.25	0.71	1.06
18.00606871	-0.72	0.21	0.63	0.97
18.0083859	-0.41	0.15	0.44	0.61
18.0127387	0.06	0.02	0.23	0.23
18.02229881	0.48	-0.03	0.04	0.48
18.03362894	0.71	0.01	-0.08	0.71
18.04291582	0.79	0.09	-0.15	0.8
18.0527699	0.77	0.19	-0.17	0.81
18.06340075	0.6	0.34	-0.07	0.69
18.07296681	0.27	0.45	0.1	0.53
18.08298397	0.12	0.54	0.35	0.65
18.11163282	0.05	0.66	0.58	0.88
18.11363173	0.01	0.76	0.7	1.03
18.11570787	0.03	0.89	0.67	1.11
18.1329639	0.06	0.97	0.51	1.09
18.13485575	0.11	0.97	0.29	1.01
18.14781094	0.19	0.98	0.1	1
18.15194368	0.26	0.97	0.02	1
18.1640408	0.23	0.89	-0.02	0.91
18.17173195	-0.02	0.77	0.07	0.77
18.18244696	-0.18	0.75	0.27	0.81
18.21279097	-0.25	0.88	0.26	0.95
18.21508789	-0.35	1.03	0.13	1.09
18.21695185	-0.38	1.1	0.02	1.16
18.23281479	-0.35	1.11	0.01	1.16
18.2345829	-0.34	1.08	0.07	1.13
18.24745083	-0.37	1.08	0.21	1.16
18.25080299	-0.42	1.04	0.48	1.22
18.26359272	-0.42	0.9	0.76	1.25
18.27115679	-0.25	0.83	0.86	1.22
18.28148484	-0.04	0.8	0.83	1.15
18.30975389	0.13	0.67	0.81	1.05
18.31201696	0.32	0.53	0.87	1.06
18.31388903	0.48	0.5	0.85	1.09
18.33299398	0.54	0.54	0.71	1.04
18.33487988	0.43	0.62	0.62	0.97
18.34835577	0.21	0.7	0.63	0.96
18.35126495	0.1	0.74	0.65	0.99
18.36372185	0.1	0.77	0.55	0.95
18.37039185	0.15	0.78	0.39	0.88
18.38144779	0.17	0.72	0.32	0.8
18.40848875	0.25	0.62	0.34	0.75
18.41078281	0.35	0.55	0.36	0.74
18.41258001	0.38	0.49	0.4	0.73
18.41937184	0.38	0.39	0.59	0.8
18.42966986	0.39	0.42	0.77	0.95
18.43942499	0.33	0.5	0.83	1.02
18.44945884	0.21	0.54	0.91	1.07
18.4597168	0.08	0.55	0.99	1.13
18.47043586	0.05	0.54	1.02	1.15
18.4802537	0.11	0.47	0.97	1.08
18.48996282	0.22	0.35	0.95	1.03
18.51148486	0.35	0.26	0.97	1.06
18.51375985	0.39	0.2	1.02	1.11
18.51865292	0.3	0.24	1.06	1.12
18.53257489	0.22	0.23	1.09	1.13
18.53862381	0.26	0.15	1.06	1.1
18.54857969	0.41	0.11	0.84	0.94
18.55901384	0.38	0.23	0.55	0.7
18.56889677	0.23	0.4	0.26	0.52
18.57926488	0.19	0.44	-0.03	0.48
18.58932877	-0.02	0.64	-0.18	0.66
18.61195374	-0.4	0.8	-0.32	0.94
18.61415195	-0.63	1.06	-0.44	1.3
18.61806679	-0.66	1.2	-0.59	1.49
18.63296986	-0.68	1.15	-0.73	1.52
18.63796782	-0.46	1.06	-0.83	1.42
18.64851999	-0.08	0.91	-0.77	1.19
18.65847301	0.17	0.68	-0.64	0.94
18.66889882	0.33	0.47	-0.45	0.72
18.67872095	0.38	0.22	-0.25	0.5
18.68894386	0.28	0.18	0.01	0.33
18.71366191	0.33	0.06	0.22	0.4
18.71595383	0.47	-0.18	0.4	0.64
18.71786594	0.36	0.09	0.63	0.73
18.73314381	0.04	0.34	0.7	0.77
18.73705387	-0.19	0.37	1	1.08
18.74770784	-0.41	0.24	1.2	1.29
18.75753403	-0.37	0.01	1.08	1.14
18.76750803	-0.18	-0.01	0.82	0.83
18.77817082	0.05	0	0.44	0.44
18.78796387	0.31	-0.02	0.12	0.33
18.81130791	0.37	-0.02	-0.18	0.41
18.81343889	0.09	0.02	-0.16	0.18
18.81637192	-0.19	0.02	0.09	0.21
18.83311272	-0.5	0.08	0.36	0.62
18.83628702	-0.72	0.19	0.65	0.98
18.84870386	-1	0.28	0.76	1.28
18.85622978	-1.08	0.29	0.86	1.41
18.86699581	-0.95	0.37	0.76	1.27
18.8770268	-0.54	0.28	0.42	0.73
18.88684583	-0.04	0.11	-0.08	0.14
18.91393089	0.45	-0.12	-0.62	0.77
18.91621876	0.71	-0.1	-0.81	1.08
18.91811371	0.54	0.11	-0.77	0.94
18.93288898	0.3	0.19	-0.79	0.86
18.9356029	0.04	0.27	-0.73	0.77
18.94780588	-0.03	0.32	-0.78	0.84
18.95576787	0.02	0.49	-0.82	0.95
18.96596098	-0.12	0.57	-0.62	0.85
18.97656488	-0.25	0.49	-0.34	0.64
18.98629093	-0.4	0.36	0	0.53
19.01835489	-0.4	0.21	0.29	0.53
19.02041292	-0.25	0.12	0.34	0.43
19.02233076	0.04	0.07	0.15	0.17
19.03298903	0.24	0.18	-0.05	0.3
19.03502083	0.22	0.32	0.08	0.39
19.04838681	0.16	0.25	0.44	0.53
19.05520678	0.11	-0.11	0.49	0.51
19.06513381	0.42	-0.54	0.43	0.8
19.07493687	0.87	-0.71	0.55	1.25
19.0855639	1.15	-0.6	0.65	1.45
19.11724997	1.13	-0.44	0.79	1.44
19.11953402	0.83	-0.4	0.92	1.3
19.12143803	0.55	-0.42	1.01	1.22
19.13312292	0.21	-0.41	1	1.1
19.13505793	0.08	-0.48	0.97	1.08
19.14782286	0.15	-0.62	0.94	1.13
19.15416574	0.36	-0.7	0.96	1.24
19.16465092	0.53	-0.65	0.98	1.28
19.17445374	0.54	-0.6	1.13	1.38
19.18492603	0.48	-0.69	1.33	1.57
19.21345186	0.34	-0.76	1.81	1.99
19.2156477	0.19	-0.88	2.46	2.61
19.21752691	0.27	-1.29	3.19	3.45
19.23346996	0.79	-1.56	4.1	4.45
19.23531771	1.23	-1.49	4.75	5.12
19.24755096	0.92	-1.32	5.23	5.47
19.25332189	-0.39	-0.83	5.16	5.24
19.26344585	-2.12	-0.39	4.36	4.86
19.2740097	-3.83	-0.52	3.43	5.16
19.28365898	-4.8	-1.35	3.33	5.99
19.29427481	-6.1	-2.34	3.47	7.39
19.31491685	-7.85	-4.17	2.99	9.37
19.31693983	-10.56	-5.9	1.86	12.23
19.3229928	-14.2	-6.43	-1.35	15.64
19.33303499	-18.52	-6.75	-6.26	20.68
19.34383678	-22.06	-6.49	-12.74	26.28
19.35349798	-23.82	-5.58	-20.24	31.75
19.36399174	-25.22	-4.13	-25.84	36.34
19.37401986	-26.93	-3.28	-28.17	39.1
19.38310003	-29.64	-3.42	-27.62	40.65
19.39368582	-33.54	-3.58	-25.75	42.43
19.41365385	-36.83	-4.68	-23.82	44.11
19.41567183	-38.22	-6.35	-21.07	44.1
19.42340684	-39.31	-6.86	-19.65	44.47
19.43286681	-41.45	-8.42	-20.95	47.2
19.44294596	-44.51	-11.79	-22.48	51.23
19.45296383	-48.3	-15.85	-24.59	56.46
19.46299386	-52.69	-20.83	-27.21	62.85
19.47298288	-59.28	-29.26	-28.49	71.98
19.483109	-66.23	-41.93	-24.32	82.07
19.49292183	-70.5	-54.94	-15.09	90.64
19.51498485	-71.33	-68.53	-3.96	98.99
19.51717901	-72.49	-79.1	8.14	107.6
19.52154684	-74.04	-86.47	13.91	114.68
19.53297687	-75.79	-88.47	11.44	117.05
19.54168892	-77.07	-88.63	12.31	118.09
19.55208683	-69.04	-88.4	19.15	113.78
19.5620327	-57.28	-87.66	20.22	106.64
19.5722158	-49.2	-82.2	16.65	97.23
19.58157492	-40.8	-72.3	9.45	83.55
19.59201193	-34.26	-65.49	1.71	73.92
19.61177301	-30.08	-61.43	-2.98	68.46
19.61387181	-27.67	-60.22	-3.86	66.38
19.62162185	-24.19	-59.86	-1.37	64.57
19.63290787	-16.78	-58.51	3.33	60.95
19.64091086	-3.81	-54.93	11.29	56.2
19.65152383	9.7	-49.11	21.63	54.53
19.6615119	17.44	-43.3	28.89	54.89
19.67111778	14.24	-37.87	31	50.96
19.68115091	5.3	-33.33	26.34	42.81
19.69137478	-2.58	-29.81	17.61	34.71
19.71644068	-8.17	-27.07	9.35	29.78
19.71884489	-12.17	-26.06	3.57	28.98
19.72085476	-14.83	-26.31	0.15	30.2
19.73385477	-16.3	-26.84	-1.36	31.43
19.74019003	-17.3	-27.31	-2.22	32.4
19.74987268	-18.31	-27.11	-3.35	32.88
19.75988984	-18.88	-26.09	-4.3	32.49
19.76979184	-18.59	-24.21	-5.16	30.95
19.78025889	-17.65	-22.04	-6.01	28.86
19.78982878	-16.41	-19.78	-6.79	26.58
19.81927776	-15.22	-16.79	-7.56	23.88
19.82160282	-13.78	-13.83	-7.54	20.92
19.82350874	-12.18	-11.61	-6.82	18.15
19.83073378	-10.7	-10.13	-5.98	15.9
19.83925772	-8.68	-9.26	-5.35	13.77
19.84888601	-6.9	-8.72	-4.48	11.98
19.8591609	-5.67	-8.55	-3.01	10.69
19.86946678	-5.26	-8.69	-1.14	10.22
19.88001585	-6.46	-8.15	0.56	10.41
19.88943577	-8.95	-7.08	1.33	11.48
19.91902184	-12.28	-5.75	0.98	13.59
19.92133784	-14.44	-3.34	0.65	14.83
19.92322493	-14.41	-1.2	0.31	14.46
19.93203688	-12.93	-0.88	-0.44	12.96
19.93839073	-10.55	-1.55	-1.32	10.74
19.94858479	-8.82	-2.12	-1.88	9.26
19.95818996	-8.83	-1.85	-2.48	9.35
19.96870375	-9.4	-1.1	-2.87	9.88
19.97848797	-10.03	-0.73	-2.96	10.48
19.98892975	-10.43	-0.57	-2.43	10.72
20.01743793	-9.9	-0.49	-1.46	10.01
20.01967382	-9.3	-0.26	-0.78	9.33
20.02157879	-8.45	-0.22	-0.86	8.49
20.03329468	-7.52	-0.25	-1.4	7.65
20.0375638	-7.1	-0.2	-1.92	7.35
20.04871988	-7.14	-0.34	-1.91	7.39
20.0576129	-7.35	-0.74	-1.26	7.49
20.0677259	-7.43	-0.81	-0.55	7.49
20.07829189	-7.76	-0.06	-0.4	7.77
20.08835888	-7.9	0.79	-0.99	8
20.09820175	-7.77	1.36	-1.83	8.09
20.12062502	-7.65	1.59	-2.5	8.2
20.12273169	-7.67	1.57	-2.92	8.35
20.12741375	-7.85	1.69	-3.01	8.57
20.13537502	-8.03	1.92	-2.85	8.73
20.1452949	-7.79	2.05	-2.71	8.49
20.15527987	-7.37	2.14	-2.65	8.11
20.16541982	-6.82	2.2	-2.66	7.64
20.1758709	-6.14	2.2	-2.8	7.09
20.18612671	-5.5	1.98	-2.78	6.47
20.19616485	-4.81	1.54	-2.48	5.62
20.21743298	-4.07	1.07	-2.2	4.74
20.21950579	-3.64	0.51	-1.81	4.09
20.2245369	-3.38	0.13	-1.48	3.69
20.23474383	-3.34	0.13	-1.35	3.6
20.24453187	-3.59	0.46	-1.5	3.91
20.25434399	-3.64	0.87	-1.8	4.15
20.26481986	-3.28	1	-2.21	4.07
20.27479482	-2.63	0.96	-2.62	3.83
20.28523874	-1.83	0.82	-2.93	3.55
20.29521275	-1.09	0.57	-3.13	3.36
20.32175684	-0.57	0.21	-3.1	3.15
20.32380486	-0.15	-0.17	-2.75	2.75
20.32594585	0.17	-0.46	-2.16	2.21
20.33397102	0.36	-0.66	-1.54	1.71
20.34392285	0.34	-0.73	-0.97	1.26
20.35404396	0.03	-0.59	-0.67	0.89
20.36375189	-0.46	-0.26	-0.61	0.8
20.37396193	-0.77	-0.15	-0.69	1.04
20.38393283	-0.84	-0.32	-0.88	1.25
20.3952117	-0.83	-0.5	-1.08	1.45
20.41989589	-0.87	-0.54	-1.32	1.67
20.42202687	-0.95	-0.55	-1.57	1.91
20.42398882	-1.07	-0.44	-1.78	2.12
20.43314791	-1.24	-0.33	-1.89	2.28
20.44308591	-1.41	-0.26	-1.9	2.38
20.45300984	-1.56	-0.22	-1.7	2.31
20.46311474	-1.84	-0.16	-1.38	2.3
20.47358584	-2.32	0	-1	2.52
20.48308372	-2.81	0.24	-0.66	2.89
20.49403095	-3.14	0.43	-0.44	3.19
20.52062798	-3.34	0.52	-0.39	3.4
20.52268076	-3.55	0.69	-0.43	3.64
20.52475882	-3.73	0.82	-0.57	3.86
20.53243184	-3.8	0.86	-0.73	3.96
20.54243588	-3.67	0.93	-0.84	3.87
20.55231476	-3.4	1	-0.88	3.65
20.56273794	-3.14	1.11	-0.86	3.43
20.57248688	-2.94	1.24	-0.88	3.3
20.58339596	-2.74	1.31	-0.96	3.18
20.59284282	-2.54	1.32	-1.01	3.03
20.62293577	-2.3	1.27	-1	2.81
20.62502289	-2.03	1.25	-0.98	2.57
20.62716484	-1.79	1.18	-0.93	2.33
20.63203287	-1.53	1.02	-0.81	2
20.64147282	-1.3	0.9	-0.67	1.71
20.65155482	-1.08	0.8	-0.45	1.41
20.66134286	-0.76	0.75	-0.27	1.1
20.67166996	-0.45	0.79	-0.16	0.92
20.68179083	-0.2	0.79	-0.07	0.81
20.69244981	0.02	0.7	-0.01	0.7
20.72428894	0.13	0.64	0.03	0.65
20.72638583	0.15	0.63	-0.03	0.64
20.72845793	0.19	0.65	-0.1	0.68
20.73168588	0.23	0.66	-0.15	0.71
20.74818087	0.26	0.61	-0.19	0.68
20.75107574	0.29	0.56	-0.11	0.64
20.76343775	0.26	0.6	0.04	0.65
20.77142286	0.19	0.57	0.21	0.63
20.78160286	0.1	0.46	0.37	0.59
20.79166889	-0.02	0.39	0.5	0.63
20.80146599	-0.18	0.44	0.58	0.74
20.82500076	-0.39	0.58	0.67	0.96
20.82732582	-0.56	0.69	0.76	1.16
20.83059072	-0.74	0.82	0.75	1.33
20.84028101	-0.87	0.92	0.74	1.46
20.85047388	-0.85	0.9	0.73	1.43
20.86005187	-0.74	0.81	0.73	1.31
20.87094069	-0.61	0.7	0.7	1.16
20.88048601	-0.52	0.67	0.73	1.11
20.89084888	-0.44	0.69	0.79	1.13
20.90079188	-0.36	0.61	0.81	1.07
20.92406797	-0.27	0.45	0.72	0.89
20.92594886	-0.29	0.39	0.63	0.79
20.92968893	-0.23	0.39	0.6	0.75
20.93988585	-0.17	0.42	0.63	0.77
20.94966698	-0.12	0.41	0.69	0.81
20.95962191	-0.11	0.38	0.7	0.8
20.96991396	-0.08	0.24	0.72	0.76
20.9806757	-0.05	0.12	0.73	0.74
20.99021292	0.05	0.08	0.74	0.74
21.00042295	0.18	0.04	0.75	0.77
21.02297497	0.26	0.08	0.65	0.7
21.02507281	0.35	0.12	0.47	0.59
21.02901483	0.57	0.07	0.27	0.63
21.03904486	0.74	0.01	0.18	0.76
21.04918194	0.71	-0.03	0.26	0.75
21.0585959	0.51	0	0.39	0.64
21.06926584	0.25	0.05	0.43	0.49
21.0791707	0.07	0.1	0.44	0.45
21.08983374	-0.1	0.18	0.42	0.46
21.0993948	-0.22	0.27	0.3	0.45
21.12445068	-0.27	0.25	0.04	0.37
21.12650299	-0.22	0.13	-0.23	0.34
21.12859774	-0.17	0.01	-0.29	0.33
21.13851285	-0.13	-0.12	-0.28	0.33
21.14829302	-0.2	0.02	-0.13	0.23
21.15810871	-0.34	0.19	-0.03	0.39
21.16826296	-0.35	0.24	0	0.42
21.1782949	-0.36	0.31	0.04	0.47
21.18837786	-0.23	0.23	0.05	0.32
21.19872189	0	0.02	0.02	0.02
21.22951269	0.22	-0.17	-0.06	0.28
21.23154187	0.39	-0.21	-0.13	0.46
21.23366594	0.4	-0.08	-0.16	0.43
21.25134182	0.4	0.01	-0.04	0.4
21.25317192	0.36	0.03	0.07	0.36
21.26415682	0.31	0.03	0.04	0.31
21.26722884	0.28	-0.02	0.02	0.28
21.28164983	0.31	-0.07	-0.03	0.31
21.28744984	0.35	-0.04	-0.1	0.36
21.29993677	0.27	0.05	-0.16	0.31
21.3248229	0.15	0.09	-0.15	0.23
21.3271749	0.05	0.11	-0.14	0.18
21.32906389	-0.02	0.2	-0.13	0.23
21.33675289	-0.05	0.36	-0.06	0.36
21.34800982	-0.12	0.49	0.05	0.5
21.35643983	-0.22	0.52	0.12	0.57
21.36654282	-0.28	0.49	0.15	0.58
21.37685394	-0.26	0.39	0.13	0.48
21.38683486	-0.18	0.23	0.07	0.3
21.39732599	-0.13	0.19	-0.01	0.23
21.42798591	-0.11	0.22	-0.09	0.26
21.43006897	-0.14	0.26	-0.11	0.31
21.4320488	-0.18	0.26	-0.04	0.31
21.45066285	-0.24	0.24	-0.07	0.34
21.45256901	-0.3	0.28	-0.18	0.44
21.46593189	-0.3	0.35	-0.2	0.5
21.46865177	-0.27	0.32	-0.08	0.42
21.48160696	-0.3	0.28	0.05	0.41
21.48627472	-0.25	0.23	0.14	0.36
21.49946785	-0.17	0.2	0.24	0.35
21.52399087	-0.07	0.19	0.35	0.4
21.52628803	0.02	0.09	0.39	0.4
21.52806091	0.1	-0.04	0.45	0.46
21.5351789	0.14	-0.17	0.54	0.58
21.54815388	0.28	-0.2	0.46	0.57
21.55499387	0.4	-0.08	0.3	0.5
21.56491685	0.44	0.03	0.25	0.5
21.57521677	0.37	0.03	0.29	0.47
21.58524799	0.23	0.08	0.31	0.39
21.59573984	0.17	0.15	0.33	0.4
21.60578299	0.19	0.13	0.21	0.31
21.62890482	0.34	0.06	0	0.34
21.63113189	0.47	0.01	-0.14	0.49
21.63485575	0.52	-0.01	-0.19	0.55
21.65135098	0.43	0.06	-0.18	0.47
21.65424991	0.22	0.23	-0.04	0.32
21.66582394	0.02	0.23	0.15	0.27
21.67416668	-0.08	0.2	0.21	0.3
21.68459797	-0.01	0.23	0.17	0.28
21.69521379	0.08	0.26	0.07	0.28
21.70490885	0.07	0.27	-0.01	0.27
21.72939086	-0.09	0.29	0.09	0.31
21.73165989	-0.32	0.31	0.3	0.53
21.73363686	-0.48	0.35	0.39	0.71
21.7511797	-0.42	0.43	0.27	0.65
21.75347996	-0.2	0.48	0.04	0.52
21.76578474	-0.04	0.52	-0.19	0.55
21.77360582	0.07	0.48	-0.38	0.61
21.78395796	0.13	0.4	-0.49	0.64
21.79381585	0.05	0.43	-0.43	0.61
21.80432582	-0.18	0.53	-0.16	0.58
21.82568073	-0.57	0.62	0.17	0.85
21.8278048	-0.74	0.49	0.36	0.95
21.83292389	-0.67	0.36	0.36	0.84
21.84319782	-0.58	0.37	0.22	0.72
21.85293388	-0.62	0.5	0.03	0.79
21.86346483	-0.72	0.58	-0.14	0.93
21.87261081	-0.62	0.52	-0.23	0.84
21.88336992	-0.47	0.49	-0.19	0.7
21.89388275	-0.33	0.48	-0.15	0.6
21.9032917	-0.21	0.5	-0.15	0.56
21.92817497	-0.17	0.47	-0.13	0.51
21.9304738	-0.14	0.38	-0.03	0.4
21.93237281	0	0.18	0	0.18
21.95146894	0.2	-0.01	0.05	0.2
21.95336986	0.3	-0.07	0.19	0.36
21.9691608	0.33	-0.06	0.37	0.49
21.97209072	0.28	-0.02	0.53	0.59
21.98259497	0.07	0.13	0.65	0.66
21.99270487	-0.05	0.2	0.64	0.67
22.00283289	-0.05	0.12	0.45	0.46
22.0338397	0	0.04	0.22	0.22
22.03621483	0.02	0.04	0.14	0.14
22.03804874	0.05	0.03	0.27	0.27
22.05205989	0.07	0	0.35	0.35
22.05400801	0.1	0	0.33	0.34
22.06640482	0.14	-0.06	0.24	0.28
22.07122087	0.18	-0.16	0.11	0.26
22.08277702	0.26	-0.16	0.08	0.31
22.09147692	0.23	-0.07	0.12	0.26
22.10143995	0.17	-0.05	0.23	0.29
22.12965775	0.21	-0.15	0.34	0.42
22.13188887	0.25	-0.22	0.36	0.49
22.13364983	0.21	-0.22	0.36	0.47
22.15155387	0.14	-0.14	0.41	0.45
22.15344	0.13	-0.08	0.45	0.47
22.1658597	0.2	-0.07	0.49	0.53
22.17046785	0.17	0.03	0.49	0.51
22.18310976	0.11	0.09	0.4	0.42
22.19094372	0.07	0.07	0.21	0.23
22.20111489	0.06	0.07	0.15	0.17
22.23263884	0.24	-0.07	0.18	0.3
22.23491669	0.42	-0.11	0.11	0.44
22.23677874	0.41	-0.06	-0.01	0.41
22.25138283	0.33	-0.06	-0.09	0.34
22.25315475	0.23	-0.06	-0.03	0.23
22.2662878	0.21	-0.08	0.1	0.24
22.26972675	0.14	-0.01	0.12	0.18
22.28339195	-0.06	0.16	0.01	0.17
22.28985977	-0.19	0.28	-0.14	0.36
22.29994082	-0.28	0.39	-0.21	0.52
22.32954788	-0.39	0.46	-0.24	0.64
22.33178997	-0.47	0.45	-0.26	0.7
22.33359003	-0.5	0.35	-0.33	0.69
22.35153985	-0.36	0.4	-0.43	0.68
22.35336971	-0.35	0.49	-0.39	0.71
22.36574388	-0.34	0.45	-0.34	0.65
22.3693428	-0.27	0.42	-0.35	0.6
22.38257599	-0.38	0.51	-0.41	0.75
22.38923073	-0.42	0.48	-0.47	0.79
22.39931488	-0.19	0.34	-0.37	0.53
22.4097259	0.14	0.1	-0.08	0.18
22.43565273	0.29	-0.09	0.35	0.46
22.43777275	0.16	0.03	0.73	0.74
22.43984699	-0.09	0.13	0.84	0.85
22.45095181	-0.21	0.05	0.71	0.74
22.45867085	-0.26	0.05	0.62	0.67
22.46826077	-0.28	0.1	0.58	0.65
22.47874689	-0.15	0.04	0.4	0.42
22.48865581	0.11	-0.1	0.19	0.24
22.49927473	0.26	-0.08	-0.02	0.27
22.50909781	0.28	-0.02	-0.13	0.3
22.53178883	0.15	-0.03	-0.09	0.17
22.53386879	-0.07	-0.09	-0.03	0.11
22.53793883	-0.31	-0.2	0.07	0.37
22.5504508	-0.52	-0.3	0.3	0.67
22.55772495	-0.82	-0.36	0.47	1.01
22.56750298	-1.19	-0.45	0.59	1.4
22.5781827	-1.5	-0.61	0.77	1.79
22.58792877	-1.6	-1.05	0.96	2.14
22.59895468	-1.57	-1.62	1.21	2.55
22.60762286	-1.72	-1.81	1.2	2.77
22.63101196	-2.23	-1.5	1.02	2.87
22.63334584	-2.92	-1.04	0.68	3.17
22.63740683	-3.79	-0.83	0.3	3.89
22.65258288	-4.58	-1.43	0.14	4.8
22.65688801	-4.96	-3.08	0.45	5.85
22.66681886	-4.59	-4.56	0.78	6.51
22.67715597	-4.76	-5.7	0.8	7.46
22.68706369	-5.76	-6.99	0.65	9.08
22.69699788	-7.92	-7.78	-0.37	11.1
22.70734072	-10.91	-8.27	-2.27	13.87
22.73253679	-12.86	-8.61	-4.46	16.1
22.73477602	-14.08	-8.47	-6.61	17.71
22.73679399	-15.37	-8.37	-8.29	19.36
22.75186491	-16.58	-8.41	-9.32	20.79
22.75664783	-17.47	-8.25	-9.2	21.39
22.76680589	-18.01	-8.09	-8.11	21.34
22.77687287	-18.77	-7.95	-5.96	21.23
22.78731871	-19.71	-7.35	-3.87	21.38
22.79723883	-20.3	-6.97	-2.89	21.65
22.80685997	-20.7	-7.06	-3.23	22.1
22.83529782	-22.89	-7.02	-5.03	24.46
22.83768988	-26.24	-6.71	-7.55	28.11
22.8397038	-30.56	-7.75	-10.2	33.13
22.85135174	-35.86	-8.95	-11.9	38.82
22.85617495	-40.74	-9.4	-13.63	43.97
22.86764669	-44.38	-10.43	-16.21	48.38
22.87619281	-46.27	-12.91	-17.95	51.28
22.88550901	-48.58	-18.85	-14.97	54.21
22.89609575	-50.71	-28.59	-6.54	58.58
22.9063158	-51.47	-39.07	4.27	64.76
22.9301579	-50.06	-48.14	15.86	71.23
22.93253088	-49.76	-57.29	24.18	79.64
22.93541384	-50.89	-70.82	22.51	90.06
22.95415783	-49.19	-81.81	18.17	97.17
22.95618391	-44.89	-83.12	16.15	95.83
22.96724796	-41.09	-77.91	13.6	89.12
22.97532701	-40.27	-73.73	11.51	84.79
22.98455191	-37.77	-68.21	9.39	78.53
22.99595499	-35.25	-61.99	6.45	71.6
23.00558281	-34.4	-56.64	3.21	66.34
23.03217268	-32.98	-52.82	-0.33	62.27
23.03444481	-30.67	-50.72	-3.99	59.4
23.03639078	-27.46	-49.29	-6.6	56.8
23.05223584	-23.2	-47.06	-7.54	53
23.05432987	-18.26	-45.56	-6.85	49.55
23.06657887	-12.24	-44.9	-4.67	46.77
23.07426882	-4.31	-44.22	-1.17	44.44
23.08450484	5.13	-41.16	4.21	41.69
23.0944488	11.54	-36.05	10.74	39.34
23.10491991	11.48	-31.85	15.93	37.41
23.13282084	7.55	-28.77	18.57	35.06
23.13520098	3.66	-25.36	18.46	31.58
23.13711286	-0.11	-23	15.38	27.66
23.15199995	-4.04	-21.79	10.74	24.62
23.15405369	-7.42	-21.3	6.34	23.42
23.16553283	-9.74	-21.49	2.71	23.74
23.17424083	-10.91	-22.01	0	24.56
23.18312287	-11.35	-22.54	-2.06	25.32
23.19379282	-11.2	-22.95	-3.55	25.78
23.20286274	-10.7	-23.15	-4.44	25.88
23.21344781	-10.23	-23.21	-4.74	25.8
23.23419094	-10.18	-22.91	-4.67	25.5
23.23622584	-10.49	-22.3	-4.68	25.08
23.24261689	-11.11	-21.09	-4.56	24.26
23.25265169	-11.74	-19.58	-4.25	23.22
23.26259279	-12.15	-17.9	-3.84	21.97
23.27265787	-12.46	-16.46	-3.32	20.9
23.28273582	-12.59	-15.2	-2.63	19.91
23.29276991	-12.78	-13.78	-2.26	18.92
23.30323601	-13.25	-12.42	-2.05	18.27
23.31312585	-13.5	-11.19	-1.51	17.59
23.33455276	-12.81	-9.85	-0.93	16.18
23.33657789	-11.39	-8.77	-0.59	14.38
23.34170294	-9.55	-7.55	-0.17	12.17
23.35195088	-7.87	-6.7	0.22	10.33
23.36184883	-7.14	-6.78	0.64	9.86
23.37210989	-7.87	-6.84	1	10.47
23.38227892	-8.91	-6.34	1.19	10.99
23.39198399	-9.77	-5.87	1.12	11.45
23.40272999	-10.62	-4.94	0.65	11.73
23.41244173	-10.91	-3.69	-0.04	11.51
23.43476582	-10.44	-3.25	-0.83	10.96
23.43681574	-10.03	-3.49	-1.11	10.67
23.44117284	-9.53	-3.54	-0.75	10.19
23.45225286	-9.32	-3.44	-0.36	9.94
23.46152687	-10.2	-2.98	0.1	10.62
23.47109079	-11.18	-2.05	0.38	11.37
23.48079181	-11.48	-1.28	0.01	11.55
23.49204969	-11.19	-0.71	-0.58	11.22
23.50123191	-10.42	-0.43	-1.14	10.49
23.51137781	-9.22	-0.99	-1.38	9.37
23.53343081	-8.25	-2.17	-0.84	8.57
23.5354538	-7.89	-3.19	0.16	8.51
23.540555	-8.01	-3.63	0.9	8.84
23.5517478	-8.76	-3.48	1.17	9.49
23.56034088	-10.1	-2.62	0.84	10.46
23.57092786	-11.49	-1.05	0.39	11.54
23.5819118	-12.16	0.41	-0.97	12.2
23.59129572	-11.59	1.55	-2.97	12.06
23.60028481	-9.61	2.1	-4.98	11.02
23.6114819	-7.61	1.89	-6.46	10.15
23.64231968	-5.73	0.93	-6.29	8.55
23.64442182	-4.1	-0.17	-4.78	6.29
23.64649391	-3.52	-1	-2.78	4.59
23.65008497	-3.93	-1.43	-1	4.29
23.66716194	-4.81	-1.41	0.27	5.01
23.66939974	-5.87	-0.87	0.73	5.97
23.68256569	-6.89	-0.34	0.51	6.91
23.68937874	-7.06	0.1	0	7.06
23.69965792	-6.39	0.51	-0.65	6.44
23.70970774	-5.46	0.43	-1.1	5.58
23.73924589	-4.56	0.07	-1.29	4.73
23.74127388	-3.92	-0.23	-1.5	4.2
23.74337101	-3.64	-0.27	-1.71	4.03
23.7514658	-3.66	-0.07	-1.82	4.08
23.75892687	-3.83	-0.04	-1.7	4.19
23.76875281	-3.96	-0.08	-1.52	4.24
23.77887082	-4.11	0	-1.27	4.3
23.78915596	-4.26	0.09	-0.92	4.35
23.79905391	-4.46	0	-0.55	4.49
23.8093698	-4.56	-0.12	-0.33	4.57
23.83794975	-4.6	0	-0.41	4.61
23.84022093	-4.78	0.38	-0.73	4.85
23.84212494	-4.75	0.7	-1.14	4.93
23.85096169	-4.48	0.85	-1.52	4.8
23.85804892	-4.27	0.95	-1.85	4.74
23.86791897	-4.1	0.95	-2.06	4.68
23.87796402	-4	0.86	-2.17	4.63
23.88828468	-3.85	0.72	-2.26	4.52
23.89852786	-3.69	0.67	-2.38	4.44
23.9082098	-3.52	0.61	-2.52	4.37
23.93721581	-3.45	0.5	-2.67	4.39
23.93946695	-3.24	0.36	-2.85	4.33
23.94128084	-2.85	0.36	-3.13	4.24
23.94971991	-2.43	0.47	-3.41	4.21
23.95746469	-2.02	0.6	-3.63	4.19
23.96757793	-1.71	0.65	-3.78	4.19
23.97709894	-1.46	0.61	-3.74	4.06
23.98788977	-1.18	0.65	-3.55	3.79
23.99752474	-0.96	0.75	-3.21	3.43
24.00766182	-0.8	0.75	-2.72	2.93
24.01822996	-0.72	0.71	-2.22	2.43
24.04155684	-0.64	0.71	-1.75	1.99
24.04350591	-0.52	0.71	-1.32	1.58
24.04668474	-0.44	0.62	-0.92	1.19
24.0566659	-0.33	0.5	-0.61	0.85
24.06701589	-0.2	0.49	-0.42	0.67
24.07651782	-0.07	0.51	-0.27	0.58
24.0866127	-0.02	0.49	-0.12	0.5
24.09808397	-0.06	0.43	0.04	0.43
24.10714388	-0.12	0.33	0.19	0.39
24.11718583	-0.13	0.25	0.36	0.45
24.14221787	-0.09	0.16	0.56	0.58
24.14434981	-0.02	0.01	0.77	0.77
24.14645195	0.11	-0.03	0.93	0.93
24.15564203	0.22	0.04	1.09	1.11
24.16624498	0.32	0.08	1.24	1.28
24.17554092	0.33	0.06	1.39	1.42
24.18522787	0.3	-0.03	1.54	1.56
24.19624281	0.28	-0.06	1.64	1.66
24.20552874	0.29	-0.03	1.72	1.74
24.21609783	0.32	-0.08	1.82	1.84
24.2393949	0.33	-0.28	1.94	1.98
24.24151468	0.49	-0.32	1.96	2.04
24.24497795	0.72	-0.19	1.85	1.99
24.25473189	0.85	-0.06	1.74	1.93
24.2648499	0.84	-0.03	1.64	1.84
24.27471781	0.77	-0.03	1.44	1.63
24.28510475	0.66	0.09	1.17	1.34
24.29491568	0.56	0.22	0.95	1.12
24.30578375	0.51	0.25	0.82	0.99
24.31564569	0.52	0.27	0.59	0.83
24.3387959	0.55	0.27	0.41	0.73
24.34073782	0.53	0.22	0.3	0.64
24.34403181	0.44	0.13	0.17	0.48
24.35409403	0.38	0.08	0.04	0.39
24.36413288	0.29	0.07	-0.09	0.31
24.37390375	0.18	0.09	-0.22	0.29
24.38413572	0.16	0.19	-0.22	0.33
24.3942647	0.1	0.32	-0.36	0.49
24.40491986	-0.05	0.39	-0.47	0.61
24.41467786	-0.2	0.5	-0.49	0.72
24.44334984	-0.38	0.64	-0.53	0.91
24.44551182	-0.47	0.68	-0.5	0.96
24.4477129	-0.52	0.68	-0.46	0.97
24.4535048	-0.61	0.74	-0.37	1.02
24.4663868	-0.69	0.83	-0.2	1.09
24.47308779	-0.71	0.93	-0.06	1.17
24.48299599	-0.7	0.96	0.07	1.19
24.49349785	-0.68	1.05	0.1	1.25
24.50338173	-0.66	1.12	0.08	1.3
24.51394701	-0.61	1.02	0.07	1.19
24.54053068	-0.46	0.83	0	0.94
24.5425787	-0.4	0.63	-0.09	0.75
24.54471183	-0.35	0.49	-0.11	0.61
24.55257273	-0.35	0.41	-0.11	0.55
24.56263685	-0.39	0.19	-0.06	0.43
24.57247496	-0.39	-0.06	-0.09	0.4
24.58228183	-0.42	-0.15	-0.27	0.52
24.59277868	-0.14	-0.18	-0.03	0.23
24.60286689	0.07	-0.13	-0.05	0.15
24.61361599	0.16	0.04	-0.04	0.16
24.63866782	0.23	0.11	0.13	0.28
24.64084196	0.09	0.16	0.2	0.27
24.64293194	0.05	0.22	0.27	0.35
24.65226173	0.09	0.25	0.32	0.41
24.66184902	0.21	0.25	0.34	0.47
24.671803	0.35	0.25	0.33	0.54
24.68165398	0.4	0.21	0.33	0.55
24.69206572	0.39	0.11	0.35	0.53
24.70272684	0.29	0.05	0.29	0.41
24.71418786	0.13	0.13	0.21	0.27
24.7425518	-0.01	0.2	0.11	0.22
24.74457288	-0.13	0.23	0.04	0.26
24.74666381	-0.21	0.28	-0.07	0.35
24.75265074	-0.25	0.33	-0.28	0.49
24.76634073	-0.24	0.34	-0.5	0.65
24.77242088	-0.21	0.32	-0.67	0.77
24.78299999	-0.2	0.3	-0.78	0.85
24.79287195	-0.22	0.26	-0.85	0.91
24.80284786	-0.26	0.24	-0.82	0.89
24.813241	-0.35	0.28	-0.77	0.89
24.84460187	-0.41	0.34	-0.68	0.86
24.84663296	-0.46	0.4	-0.55	0.82
24.8487339	-0.6	0.5	-0.37	0.86
24.85187578	-0.8	0.62	-0.14	1.02
24.86185503	-0.86	0.61	0.03	1.05
24.8718729	-0.77	0.54	0.13	0.94
24.88182402	-0.53	0.47	0.19	0.73
24.89150286	-0.3	0.43	0.18	0.55
24.90237284	-0.15	0.36	0.14	0.41
24.91222	-0.07	0.21	0.07	0.23
24.92354393	0.07	0	0.05	0.08
24.94443488	0.29	-0.26	-0.02	0.39
24.94671869	0.46	-0.51	-0.08	0.69
24.95112801	0.56	-0.57	-0.01	0.79
24.96142197	0.46	-0.44	0.08	0.64
24.97124577	0.19	-0.16	0.18	0.3
24.98127389	-0.12	0.06	0.25	0.28
24.99092293	-0.46	0.25	0.32	0.61
25.00167179	-0.83	0.43	0.35	0.99
25.01107383	-1.21	0.63	0.45	1.43
25.02190876	-1.79	0.99	0.54	2.11
25.0454669	-2.16	1.11	0.58	2.49
25.04774189	-1.88	0.7	0.56	2.08
25.05080271	-1.27	0.31	0.42	1.37
25.06054497	-0.52	0.06	0.11	0.53
25.07026768	0.19	-0.05	-0.26	0.32
25.08016872	0.63	-0.07	-0.53	0.82
25.09088087	0.77	-0.1	-0.64	1
25.10108995	0.74	-0.22	-0.61	0.98
25.11082888	0.67	-0.37	-0.44	0.88
25.12119579	0.64	-0.39	-0.16	0.76
25.14445281	0.7	-0.33	0.09	0.77
25.14675379	0.82	-0.29	0.22	0.89
25.14990377	0.88	-0.26	0.3	0.96
25.15992188	0.81	-0.22	0.32	0.89
25.16988087	0.69	-0.26	0.27	0.78
25.18065786	0.59	-0.28	0.28	0.71
25.18972588	0.6	-0.3	0.28	0.72
25.20050478	0.71	-0.35	0.32	0.85
25.20965576	0.87	-0.41	0.29	1
25.22027969	0.96	-0.41	0.25	1.07
25.2440269	1	-0.37	0.28	1.1
25.24608898	0.96	-0.32	0.3	1.05
25.24900675	0.7	-0.19	0.37	0.81
25.25902987	0.33	0	0.45	0.55
25.2688148	0.12	0.08	0.5	0.52
25.27895403	-0.07	0.11	0.52	0.53
25.28918982	-0.2	0.09	0.51	0.55
25.29927588	-0.09	0.05	0.42	0.43
25.30936098	0.07	0.01	0.26	0.26
25.31946468	0.27	0.01	0.07	0.27
25.34960079	0.34	0.07	-0.14	0.37
25.35155582	0.27	0.15	-0.29	0.42
25.35367489	0.09	0.19	-0.39	0.44
25.36995387	-0.1	0.23	-0.39	0.46
25.37198782	-0.32	0.32	-0.38	0.59
25.3833878	-0.53	0.41	-0.3	0.73
25.38786077	-0.6	0.5	-0.14	0.79
25.40043688	-0.54	0.54	-0.05	0.76
25.40797782	-0.45	0.43	-0.05	0.62
25.418571	-0.31	0.3	-0.09	0.44
25.44782686	-0.09	0.25	-0.17	0.31
25.45017982	0.09	0.21	-0.24	0.33
25.45204878	0.18	0.15	-0.27	0.35
25.46948481	0.14	0.11	-0.19	0.26
25.47132874	0.07	0.14	-0.01	0.15
25.48430872	0.05	0.13	0.18	0.22
25.48709869	0.1	0.1	0.35	0.37
25.50166988	0.14	0.08	0.47	0.49
25.50691175	0.26	0.06	0.51	0.57
25.51823568	0.38	0.02	0.45	0.58
25.54343581	0.41	-0.01	0.32	0.52
25.54570985	0.41	0.02	0.21	0.46
25.54750395	0.38	0.08	0.17	0.42
25.55698586	0.32	0.16	0.18	0.4
25.56778669	0.21	0.3	0.21	0.42
25.576581	-0.01	0.47	0.26	0.53
25.58641982	-0.21	0.61	0.24	0.68
25.59695482	-0.35	0.71	0.09	0.79
25.60681081	-0.37	0.69	-0.05	0.78
25.61728573	-0.34	0.64	-0.16	0.74
25.6466229	-0.32	0.62	-0.27	0.74
25.64853668	-0.31	0.68	-0.29	0.8
25.65063882	-0.38	0.74	-0.26	0.87
25.66970396	-0.41	0.73	-0.27	0.87
25.67144299	-0.35	0.7	-0.28	0.83
25.68315792	-0.31	0.66	-0.31	0.79
25.68561482	-0.24	0.51	-0.33	0.65
25.70103693	-0.24	0.5	-0.37	0.66
25.70583391	-0.28	0.64	-0.32	0.76
25.7190237	-0.32	0.7	-0.17	0.78
25.72626591	-0.44	0.8	0.03	0.91
25.75557899	-0.52	0.78	0.18	0.95
25.75759697	-0.6	0.63	0.28	0.91
25.75966883	-0.68	0.5	0.33	0.9
25.7692647	-1.02	0.52	0.49	1.24
25.7752049	-1.66	0.51	0.72	1.87
25.78534985	-2.75	0.31	0.73	2.86
25.79485083	-3.74	-0.17	0.53	3.78
25.80527186	-4.5	-0.81	-0.18	4.57
25.81576586	-5.33	-1.14	-1.64	5.69
25.82508183	-6.79	-1.22	-3.43	7.7
25.84767985	-9.6	-1.3	-5.16	10.97
25.84994888	-12.94	-2.12	-7.2	14.95
25.8549428	-15.62	-2.97	-10.08	18.82
25.86988282	-17.7	-2.44	-13.58	22.44
25.8745029	-19.69	-1.35	-17.29	26.23
25.8846128	-21.66	-0.81	-20.95	30.14
25.8950808	-23.21	0.57	-23.33	32.91
25.90496683	-24.97	1.58	-23.85	34.56
25.91556287	-26.89	0.92	-22.21	34.88
25.92512989	-28.78	-0.4	-19.34	34.67
25.94836903	-30.16	-1.42	-14.61	33.54
25.95075703	-31.32	-1.33	-8.93	32.59
25.95421696	-35.1	-2.37	-5.36	35.58
25.97013187	-38.9	-4.74	-3.22	39.31
25.973804	-41.96	-5.68	-1.85	42.38
25.98391199	-43.65	-5.21	-1.74	43.99
25.99392581	-45.8	-4.61	-3.36	46.15
26.00503778	-48.06	-5.29	-5.03	48.61
26.01440573	-50.49	-6.89	-5.51	51.25
26.02408171	-52.84	-9.55	-4.38	53.87
26.04482079	-54.86	-13	-2.21	56.42
26.04718184	-58.56	-19	-1.14	61.57
26.05408573	-61.85	-28.95	0.17	68.29
26.06320477	-62.37	-37.02	1.45	72.54
26.0734148	-61.77	-44.46	3.81	76.2
26.08322883	-58.81	-50.4	6.96	77.76
26.09368896	-54.45	-52.15	10.04	76.06
26.10352278	-50.3	-49.1	12.5	71.39
26.11397076	-45.86	-44.73	13.52	65.47
26.12383389	-40.34	-40.91	12.59	58.81
26.15178299	-34.52	-37.87	9.53	52.12
26.15411377	-30.26	-36.07	5.5	47.4
26.15607071	-27.92	-34.54	2.27	44.47
26.17006588	-25.21	-32.12	0.78	40.83
26.17286968	-22.09	-29.63	0.36	36.95
26.18413877	-19.88	-27.39	0.39	33.84
26.19289589	-18.51	-25.33	1.15	31.39
26.20203781	-17.93	-23.62	1.98	29.72
26.21324778	-17.86	-22.43	2.7	28.79
26.22309971	-17.65	-21.58	3.27	28.06
26.24949789	-16.97	-20.75	3.67	27.05
26.25187397	-15.69	-19.92	4.31	25.72
26.25386095	-13.85	-19.12	5.33	24.2
26.270257	-11.41	-18.53	6.43	22.69
26.27235484	-8.73	-18.04	7.48	21.39
26.28499794	-6.05	-17.79	8.41	20.58
26.2922318	-3.98	-17.1	9.3	19.86
26.30124474	-3.4	-16.41	9.32	19.17
26.31261182	-4.1	-16.35	8.03	18.67
26.32245588	-5.16	-16.45	5.92	18.22
26.34860277	-6.09	-16.5	3.83	18
26.35088396	-7.07	-16.62	1.83	18.15
26.35280991	-8.05	-16.77	-0.22	18.6
26.37048769	-8.77	-16.72	-1.75	18.96
26.37240481	-9.75	-16.25	-2.52	19.11
26.3847158	-10.98	-15.95	-2.68	19.54
26.39052081	-11.8	-15.78	-2.21	19.82
26.40161896	-12.18	-15.58	-1.54	19.83
26.4114368	-12.29	-15.57	-0.96	19.85
26.42111182	-12.25	-15.97	-0.31	20.12
26.45155096	-12.06	-16.47	0.4	20.41
26.45394683	-11.86	-17.15	1.05	20.87
26.45587873	-11.7	-18.3	1.73	21.78
26.47023678	-11.4	-19.52	2.48	22.74
26.47215891	-11.23	-20.43	3.05	23.51
26.48476076	-11.11	-21.48	3.67	24.45
26.48977184	-11.55	-23.14	4.74	26.29
26.50151873	-12.78	-24.73	6.4	28.56
26.51008987	-15.34	-26.35	8.11	31.55
26.52021074	-18.76	-27.1	9.89	34.41
26.5307498	-23.06	-27.06	11.57	37.38
26.55399895	-26.96	-25.99	12.9	39.6
26.55609989	-30.33	-23.58	13.82	40.82
26.55974674	-32.99	-20.47	13.88	41.23
26.570292	-33.56	-18.42	12.67	40.32
26.57988191	-33.21	-17.58	11.6	39.32
26.59017277	-31.81	-17.24	10.37	37.63
26.60004473	-30.33	-17.01	9.03	35.92
26.61030388	-31.06	-15.97	7.92	35.81
26.62010789	-33.34	-13.5	6.73	36.59
26.63037086	-35.25	-9.87	4.4	36.86
26.65092802	-35.23	-7.41	0.93	36.01
26.6530447	-33.62	-4.81	-2.1	34.02
26.65925598	-29.19	-2.91	-4.72	29.71
26.66955781	-24.08	-3.61	-5.72	25.01
26.67922592	-21.11	-5.27	-5.05	22.33
26.68940496	-20.25	-5.89	-4.15	21.49
26.69938898	-21.04	-5.42	-3.68	22.03
26.70909381	-22.35	-3.79	-3.65	22.96
26.7189219	-23.13	-1.07	-3.51	23.41
26.72976494	-23.17	1.7	-2.66	23.38
26.75057888	-23	3.92	-1.69	23.39
26.75271797	-21.99	5.42	-1.43	22.69
26.75861788	-19.62	5.78	-2.02	20.55
26.770123	-16.89	5.49	-2.85	17.98
26.77794385	-14.34	4.88	-3.54	15.55
26.7884748	-12.14	4.1	-3.82	13.37
26.79742479	-10.18	3.32	-3.81	11.36
26.80816388	-8.46	2.77	-3.66	9.62
26.81827188	-7.09	2.58	-3.55	8.33
26.82827473	-6.08	2.64	-3.45	7.47
26.85068083	-5.33	2.74	-3.4	6.89
26.85279083	-4.72	2.81	-3.39	6.45
26.856987	-4.24	2.86	-3.35	6.11
26.86969686	-3.83	2.89	-3.3	5.82
26.87686872	-3.55	2.74	-3.19	5.5
26.8876338	-3.37	2.74	-3.16	5.37
26.89693189	-2.95	2.79	-3.57	5.4
26.90718794	-2.37	2.67	-3.65	5.1
26.91711378	-1.75	2.47	-3.16	4.37
26.92756796	-1.19	2.2	-2.51	3.54
26.95639491	-0.63	1.92	-1.99	2.83
26.95868301	-0.09	1.69	-1.59	2.32
26.9605248	0.33	1.41	-1.31	1.95
26.9683938	0.7	1.04	-1.08	1.65
26.97625971	1.01	0.71	-0.95	1.55
26.98607302	1.23	0.42	-0.88	1.56
26.99628973	1.35	0.22	-0.78	1.57
27.00655484	1.38	0.06	-0.62	1.51
27.0162859	1.44	0.06	-0.5	1.52
27.02687883	1.39	0.26	-0.39	1.46
27.05846286	1.15	0.47	-0.24	1.26
27.06069469	0.75	0.57	-0.02	0.94
27.06261182	0.31	0.58	0.24	0.7
27.06973386	-0.06	0.57	0.54	0.78
27.07528496	-0.32	0.55	0.79	1.01
27.08559084	-0.44	0.46	0.99	1.17
27.09563494	-0.44	0.35	1.1	1.23
27.10570884	-0.39	0.28	1.17	1.26
27.11624098	-0.32	0.2	1.25	1.3
27.12612081	-0.26	0.14	1.33	1.36
27.1581738	-0.28	0.1	1.38	1.41
27.16034484	-0.36	0.1	1.39	1.43
27.16218472	-0.46	0.08	1.35	1.42
27.16769791	-0.56	0.04	1.29	1.4
27.17525887	-0.61	-0.03	1.17	1.31
27.18528485	-0.6	-0.08	1.07	1.22
27.19468689	-0.52	-0.1	0.96	1.09
27.20504093	-0.47	-0.1	0.84	0.96
27.21487784	-0.42	-0.15	0.74	0.86
27.22522783	-0.3	-0.19	0.61	0.7
27.25408888	-0.23	-0.21	0.43	0.53
27.25634193	-0.27	-0.27	0.29	0.47
27.25821185	-0.25	-0.29	0.1	0.39
27.27052593	-0.13	-0.17	-0.12	0.24
27.27385902	-0.04	0	-0.25	0.25
27.28545785	-0.06	0.11	-0.33	0.35
27.29397583	-0.18	0.25	-0.38	0.48
27.3042717	-0.35	0.46	-0.48	0.75
27.31422472	-0.36	0.59	-0.58	0.9
27.32459879	-0.18	0.55	-0.6	0.83
27.33433676	-0.05	0.4	-0.64	0.75
27.36008286	0.13	0.22	-0.58	0.63
27.3621099	0.35	0	-0.52	0.62
27.36417198	0.45	-0.16	-0.4	0.62
27.37330294	0.47	-0.21	-0.28	0.58
27.38511992	0.44	-0.23	-0.15	0.51
27.39302778	0.29	-0.18	-0.01	0.34
27.40341473	0.05	0.05	0.11	0.13
27.41354275	-0.15	0.23	0.16	0.31
27.4233768	-0.37	0.33	0.19	0.53
27.43366003	-0.45	0.25	0.21	0.55
27.45637083	-0.47	0.16	0.12	0.51
27.45838881	-0.46	0.27	0.05	0.53
27.46264076	-0.39	0.36	0.02	0.53
27.47257996	-0.26	0.34	-0.04	0.42
27.482656	-0.21	0.33	-0.02	0.39
27.49297881	-0.24	0.36	0.06	0.43
27.50290084	-0.29	0.36	0.17	0.49
27.51318169	-0.25	0.27	0.46	0.58
27.52335501	-0.19	0.17	0.77	0.81
27.53354383	-0.1	0.15	0.94	0.95
27.55781269	-0.05	0.21	1.16	1.17
27.55981874	0.03	0.23	1.43	1.44
27.5619359	0.04	0.22	1.6	1.61
27.57173872	-0.06	0.17	1.67	1.67
27.5818119	-0.29	0.24	1.7	1.74
27.59175873	-0.55	0.33	1.64	1.76
27.60198188	-0.92	0.54	1.55	1.88
27.61203384	-1.41	0.86	1.46	2.2
27.62242794	-1.7	0.84	1.47	2.39
27.63239479	-1.55	0.37	1.35	2.08
27.65717793	-0.99	-0.15	0.81	1.28
27.65921402	-0.29	-0.46	0.12	0.55
27.6613338	0.53	-0.64	-0.75	1.11
27.67109084	1.14	-0.52	-1.49	1.94
27.68163991	1.29	-0.17	-1.94	2.33
27.69103885	1	0.13	-1.99	2.23
27.7014339	0.38	0.44	-1.7	1.79
27.71127081	-0.3	0.61	-1.17	1.35
27.7216897	-0.69	0.62	-0.6	1.1
27.73187399	-0.73	0.55	-0.37	0.98
27.76242399	-0.45	0.33	-0.29	0.62
27.76451182	0.04	-0.02	-0.41	0.41
27.76658988	0.72	-0.2	-0.55	0.92
27.77027178	1.04	-0.18	-0.67	1.25
27.78062201	1.14	-0.22	-0.7	1.35
27.79039288	1.05	-0.21	-0.54	1.19
27.80021095	0.72	-0.08	-0.2	0.75
27.81028271	0.26	0.11	0.24	0.37
27.82082701	-0.1	0.17	0.71	0.73
27.83093596	-0.27	0.13	1.12	1.15
27.86042595	-0.32	0.17	1.35	1.39
27.86248398	-0.25	0.16	1.24	1.27
27.86511183	-0.06	-0.02	0.98	0.98
27.87021875	0.2	-0.21	0.74	0.79
27.88430071	0.43	-0.33	0.59	0.8
27.88929796	0.67	-0.4	0.47	0.91
27.90056086	0.86	-0.41	0.43	1.04
27.90972185	0.91	-0.35	0.51	1.1
27.91957903	0.88	-0.27	0.65	1.12
27.92935085	0.76	-0.23	0.8	1.12
27.96177769	0.53	-0.16	0.91	1.06
27.96385002	0.31	-0.08	1.08	1.12
27.96581173	0.31	-0.07	1.14	1.18
27.96885586	0.4	-0.07	0.99	1.07
27.98509598	0.47	-0.08	0.85	0.97
27.98859882	0.58	-0.15	0.73	0.94
28.00056481	0.61	-0.18	0.6	0.87
28.00836182	0.48	-0.07	0.53	0.71
28.018857	0.26	0.08	0.58	0.64
28.02941489	-0.06	0.18	0.58	0.61
28.05777693	-0.4	0.32	0.49	0.7
28.05983591	-0.74	0.52	0.34	0.96
28.06192398	-0.95	0.64	0.16	1.15
28.06857085	-0.97	0.61	0.14	1.15
28.07799292	-0.83	0.52	0.11	0.98
28.08802795	-0.6	0.55	-0.08	0.81
28.09796691	-0.42	0.64	-0.29	0.81
28.10805082	-0.31	0.61	-0.52	0.85
28.11871386	-0.19	0.5	-0.57	0.78
28.12927485	-0.04	0.37	-0.42	0.56
28.13691688	0.02	0.28	-0.15	0.31
28.15989494	0.06	0.21	0	0.21
28.16209984	0.07	0.19	0.07	0.21
28.16571474	0.11	0.19	0.16	0.27
28.1759367	0.26	0.12	0.32	0.42
28.18605685	0.38	0.04	0.4	0.55
28.19616079	0.5	-0.08	0.35	0.61
28.20604181	0.62	-0.11	0.26	0.68
28.2160058	0.74	-0.06	0.17	0.76
28.22606468	0.79	-0.06	0.1	0.79
28.23635578	0.69	-0.02	0.08	0.69
28.25989199	0.5	0.03	0.14	0.52
28.2620008	0.3	0.08	0.21	0.37
28.26509786	0.16	0.13	0.21	0.29
28.27526379	0.07	0.16	0.17	0.24
28.28558302	0.11	0.18	0.02	0.21
28.295506	0.17	0.26	-0.09	0.32
28.30518484	0.18	0.25	-0.09	0.32
28.31580782	0.13	0.18	-0.01	0.22
28.32526302	0.02	0.18	0.14	0.22
28.335886	-0.11	0.22	0.27	0.36
28.36070085	-0.17	0.31	0.38	0.51
28.3627677	-0.14	0.33	0.4	0.53
28.36491084	-0.03	0.29	0.37	0.47
28.3743279	0.12	0.22	0.32	0.4
28.38461494	0.24	0.16	0.25	0.38
28.39430881	0.24	0.14	0.19	0.33
28.40447688	0.18	0.13	0.18	0.28
28.41460085	0.17	0.11	0.23	0.3
28.4247117	0.15	0.12	0.2	0.27
28.43478203	0.09	0.18	0.17	0.26
28.46067286	0.07	0.22	0.13	0.26
28.46246672	0.08	0.24	0.09	0.26
28.46440983	0.06	0.27	0.07	0.28
28.47352386	-0.05	0.31	0.07	0.32
28.48358774	-0.16	0.35	0.1	0.39
28.49339676	-0.18	0.34	0.12	0.4
28.50384474	-0.15	0.32	0.16	0.38
28.5138588	-0.09	0.3	0.2	0.37
28.52469182	-0.08	0.28	0.19	0.34
28.5334518	-0.19	0.29	0.19	0.39
28.56089878	-0.29	0.3	0.27	0.49
28.56288099	-0.41	0.32	0.34	0.62
28.56496668	-0.46	0.29	0.35	0.64
28.57283592	-0.38	0.25	0.3	0.54
28.58526087	-0.35	0.17	0.3	0.49
28.59298992	-0.3	0.14	0.38	0.5
28.60272884	-0.35	0.2	0.44	0.59
28.61292982	-0.46	0.26	0.51	0.73
28.62282586	-0.53	0.36	0.66	0.91
28.6334579	-0.66	0.45	0.72	1.07
28.66212797	-0.72	0.46	0.7	1.1
28.66424179	-0.86	0.5	0.59	1.15
28.6662519	-1.13	0.5	0.54	1.34
28.67209578	-1.29	0.59	0.56	1.52
28.68502569	-1.4	0.76	0.6	1.7
28.69217682	-1.44	0.96	0.67	1.85
28.70193672	-1.72	1.19	0.73	2.21
28.71272373	-2.15	1.43	0.77	2.69
28.722404	-2.96	1.74	0.94	3.55
28.73314571	-4.03	2.38	1.56	4.93
28.76391888	-4.86	2.83	2.33	6.08
28.76589775	-4.68	2.69	2.84	6.09
28.76764584	-3.76	2.26	2.75	5.17
28.77196288	-2.91	1.78	2.45	4.19
28.78138494	-2.59	1.63	2.05	3.68
28.79174089	-2.79	1.69	1.4	3.54
28.80154586	-3.08	1.82	0.61	3.62
28.81142569	-3.41	2.36	-0.35	4.16
28.82201886	-3.83	2.85	-1.55	5.01
28.83251381	-3.56	3.23	-2.52	5.42
28.84193897	-2.91	3.56	-3.41	5.72
28.86682892	-2.9	3.72	-4.66	6.63
28.86905885	-3.76	4.1	-6.7	8.7
28.87097597	-4.8	4.6	-9.63	11.7
28.88780403	-5.22	4.62	-12.61	14.4
28.8907578	-5.12	4.13	-15.37	16.71
28.90161586	-5.15	3.63	-17.77	18.85
28.91095686	-5.47	3.48	-20.4	21.4
28.92124391	-5.37	3.14	-23.4	24.21
28.93165183	-4.79	2.34	-25.71	26.25
28.94152403	-3.93	1.53	-26.73	27.06
28.9615798	-3.7	0.96	-27.45	27.71
28.96394777	-4.57	0.26	-28.2	28.56
28.97127485	-4.96	-1.48	-28.77	29.23
28.98074102	-4.86	-4.22	-29.78	30.46
28.99077487	-4.68	-8.12	-31.75	33.1
29.00039577	-4.13	-13.61	-34.34	37.16
29.01071978	-4.73	-18.97	-33.77	39.02
29.02118587	-8.46	-25.95	-29.95	40.52
29.03108072	-14.5	-34.97	-23.37	44.48
29.04081297	-22.07	-42.67	-13.71	49.95
29.0619998	-30.23	-50.19	-3.84	58.71
29.06445384	-36.41	-56.27	4.48	67.17
29.07060003	-38.51	-60.35	9.41	72.2
29.0797689	-38.14	-63.43	10.44	74.74
29.09031773	-37.2	-65.48	12.16	76.28
29.09955168	-35.31	-65.34	17.13	76.22
29.10989475	-31.65	-62	24.03	73.64
29.12036085	-25.71	-52.23	37.19	69.08
29.12974691	-15.45	-38.85	48.89	64.32
29.14057684	-1.98	-26.92	52.82	59.31
29.15964389	7.53	-21.67	47.49	52.74
29.1616869	8.85	-20.24	36.89	42.99
29.17001581	5.68	-18.95	25.95	32.63
29.17883873	0.89	-18.68	16.42	24.88
29.18894768	-4.06	-18.11	9.25	20.73
29.19847679	-7.54	-18.06	3.48	19.87
29.20850801	-9.55	-18.52	-0.48	20.84
29.2183547	-10.52	-18.63	-2.73	21.56
29.22900772	-10.61	-18.43	-4.17	21.67
29.23886299	-9.65	-18.16	-5.26	21.22
29.27250195	-7.61	-18	-5.99	20.43
29.27453995	-5.02	-17.94	-6.02	19.57
29.27669191	-2.51	-17.8	-5.16	18.7
29.2864058	-0.37	-17.45	-3.76	17.85
29.28837299	1.22	-16.96	-2.19	17.14
29.3026228	2.33	-16.27	-0.73	16.45
29.30769396	3.13	-15.39	0.29	15.7
29.31913185	3.56	-14.4	1	14.86
29.32885599	3.5	-13.26	1.76	13.82
29.33834481	3.05	-12.06	2.69	12.72
29.3722899	2.59	-10.93	3.6	11.79
29.37454987	2.39	-9.85	3.97	10.88
29.376513	2.43	-9.02	3.66	10.03
29.38649368	2.49	-8.37	2.9	9.2
29.38840389	2.32	-7.63	2.33	8.3
29.40282488	1.94	-7.09	1.86	7.58
29.40697193	1.36	-6.78	1.43	7.06
29.4189167	0.65	-6.44	0.79	6.52
29.42775583	0.11	-6.02	-0.13	6.02
29.43758392	-0.35	-4.96	-1.38	5.16
29.46667385	-0.72	-3.02	-2.89	4.24
29.46900177	-1.23	-1.38	-5	5.33
29.47085476	-1.31	-0.97	-6.12	6.33
29.48856974	-1.99	-1.2	-7.66	8
29.4904778	-2.78	-1.59	-7.59	8.23
29.50293589	-3.38	-1.89	-6.13	7.25
29.50634384	-3.99	-1.3	-5.4	6.83
29.51953268	-4.32	-0.29	-5.76	7.2
29.52622795	-4.78	0.62	-6.65	8.21
29.53624392	-5.22	1.26	-6.23	8.22
29.56502891	-5.97	1.67	-5.15	8.05
29.56729889	-6.31	1.36	-3.94	7.56
29.56917286	-5.98	0.45	-3.12	6.75
29.58861589	-5.01	-0.31	-2.99	5.84
29.59053898	-3.67	-0.66	-3.65	5.21
29.60263991	-2.46	-0.75	-4.68	5.34
29.60590601	-1.38	-0.75	-5.76	5.97
29.61955976	-0.72	-0.49	-6.71	6.76
29.6261909	-0.75	-0.06	-7.11	7.14
29.63678384	-1.28	0.3	-6.73	6.85
29.64659595	-2.05	0.6	-5.89	6.26
29.67592573	-2.82	0.89	-4.91	5.73
29.67794371	-3.61	1.09	-3.9	5.42
29.68008089	-4.32	1.23	-3.22	5.52
29.68690181	-4.27	0.83	-2.66	5.09
29.69503975	-3.85	0.24	-2.11	4.39
29.70481086	-3.33	-0.05	-1.41	3.61
29.71469402	-2.88	-0.06	-0.85	3
29.72515583	-2.85	0.19	-0.5	2.89
29.73528671	-3.58	0.96	-0.33	3.72
29.74569988	-4.63	1.92	-0.61	5.04
29.76820183	-5.33	2.57	-1.07	6.01
29.77051187	-5.68	2.88	-1.47	6.53
29.77422094	-6.03	3.1	-1.68	6.98
29.78922701	-6.97	3.97	-1.99	8.26
29.79402876	-7.98	4.95	-3.2	9.92
29.8039608	-8.18	5.35	-4.12	10.6
29.81408691	-8.11	5.27	-4.49	10.66
29.82458878	-7.96	4.6	-4.18	10.09
29.83505678	-7.06	3.84	-2.99	8.57
29.84475374	-5.82	3.26	-1.74	6.89
29.86884785	-4.59	2.72	-0.24	5.34
29.87118196	-3.35	2.03	1.84	4.32
29.8735199	-2.37	1.61	3.84	4.79
29.8917408	-1.9	1.54	5.28	5.81
29.89390802	-1.7	1.42	5.93	6.33
29.90467691	-1.58	1.05	5.56	5.87
29.91425681	-1.4	0.65	4.56	4.81
29.92370796	-0.98	0.5	3.55	3.71
29.93367672	-0.47	0.62	2.86	2.96
29.94411588	-0.08	0.79	2.37	2.49
29.96304083	0.19	0.75	1.95	2.09
29.96526289	0.29	0.65	1.6	1.75
29.97276282	0.32	0.51	1.45	1.57
29.9827137	0.49	0.36	1.42	1.54
29.99275088	0.58	0.3	1.29	1.44
30.00277686	0.52	0.43	1.18	1.35
30.01325583	0.58	0.49	1.05	1.29
30.0230608	0.61	0.47	0.9	1.18
30.03325582	0.58	0.48	0.58	0.95
30.04366875	0.61	0.4	0.21	0.75
30.07633495	0.63	0.16	-0.13	0.66
30.0786469	0.55	-0.02	-0.24	0.6
30.08053493	0.51	-0.12	-0.24	0.57
30.0860219	0.61	-0.2	-0.27	0.69
30.09203196	0.72	-0.25	-0.37	0.84
30.1025548	0.81	-0.23	-0.4	0.93
30.11191487	0.86	-0.19	-0.41	0.97
30.12201977	0.85	-0.2	-0.4	0.96
30.13202691	0.7	-0.15	-0.36	0.8
30.14260769	0.43	-0.05	-0.27	0.51
30.17080688	0.18	-0.08	-0.19	0.27
30.17309999	-0.02	-0.16	-0.14	0.21
30.17494869	-0.21	-0.17	-0.19	0.33
30.18836403	-0.33	-0.14	-0.26	0.44
30.1912818	-0.42	-0.15	-0.17	0.47
30.20290685	-0.43	-0.29	-0.06	0.52
30.21109486	-0.37	-0.43	-0.12	0.57
30.2214458	-0.25	-0.41	-0.21	0.52
30.2312007	-0.08	-0.38	-0.29	0.48
30.24184179	0.03	-0.49	-0.28	0.56
30.2717278	0.11	-0.59	-0.24	0.64
30.27397585	0.19	-0.61	-0.28	0.69
30.27573395	0.35	-0.64	-0.28	0.78
30.28878069	0.4	-0.63	-0.17	0.76
30.29050183	0.4	-0.63	-0.02	0.74
30.30325985	0.41	-0.68	0.07	0.79
30.31064582	0.44	-0.76	0.06	0.88
30.32055473	0.5	-0.81	0.02	0.95
30.33141184	0.53	-0.76	-0.02	0.92
30.34097886	0.57	-0.66	-0.03	0.87
30.37444282	0.64	-0.6	-0.09	0.88
30.37669182	0.62	-0.52	-0.16	0.82
30.37856579	0.65	-0.42	-0.21	0.8
30.38797283	0.7	-0.37	-0.29	0.84
30.38997269	0.68	-0.29	-0.33	0.8
30.4033289	0.47	-0.15	-0.23	0.54
30.40951586	0.16	-0.01	-0.04	0.16
30.41965294	-0.03	0.07	0.14	0.15
30.42962694	-0.11	0.09	0.21	0.25
30.43965483	-0.1	0.09	0.18	0.22
30.45031881	-0.05	0.03	0.13	0.14
30.47132301	0.01	0.05	0.02	0.05
30.4733367	0.01	0.14	-0.07	0.15
30.47907591	-0.09	0.26	-0.15	0.31
30.48887777	-0.28	0.34	-0.16	0.46
30.49906588	-0.41	0.4	-0.15	0.59
30.50905275	-0.47	0.46	-0.16	0.67
30.5192399	-0.5	0.49	-0.14	0.71
30.52914882	-0.47	0.49	-0.11	0.68
30.53980684	-0.4	0.48	-0.09	0.63
30.54955482	-0.3	0.44	-0.04	0.53
30.57218695	-0.24	0.38	0.03	0.45
30.57422972	-0.19	0.27	0.17	0.37
30.57859802	-0.16	0.25	0.22	0.36
30.58895779	-0.16	0.29	0.25	0.41
30.59825468	-0.12	0.31	0.29	0.44
30.60818291	-0.07	0.28	0.34	0.44
30.61868882	-0.06	0.26	0.38	0.46
30.6280148	-0.09	0.29	0.38	0.48
30.63879991	-0.08	0.34	0.38	0.51
30.64894199	-0.06	0.36	0.33	0.49
30.67124081	-0.01	0.34	0.3	0.45
30.67318773	0.13	0.22	0.27	0.37
30.67761683	0.28	0.11	0.29	0.41
30.6887188	0.38	0.06	0.32	0.5
30.69762683	0.45	0.07	0.34	0.56
30.70738888	0.46	0.09	0.35	0.58
30.71791887	0.43	0.12	0.37	0.57
30.72757888	0.36	0.17	0.41	0.57
30.73839092	0.27	0.22	0.47	0.58
30.7483089	0.23	0.23	0.48	0.57
30.77128172	0.23	0.22	0.43	0.53
30.77319479	0.23	0.26	0.35	0.49
30.77690482	0.2	0.29	0.26	0.43
30.78864193	0.08	0.26	0.21	0.34
30.79664087	-0.01	0.12	0.2	0.23
30.80711269	-0.05	0	0.15	0.15
30.81746197	-0.13	0.07	0.03	0.15
30.8272357	-0.28	0.22	-0.06	0.36
30.83719778	-0.38	0.29	-0.06	0.48
30.8470459	-0.43	0.25	-0.13	0.51
30.88025188	-0.49	0.26	-0.31	0.63
30.88239098	-0.6	0.37	-0.51	0.87
30.88446474	-0.65	0.46	-0.64	1.02
30.88667297	-0.67	0.5	-0.66	1.06
30.9044888	-0.7	0.53	-0.62	1.07
30.90643501	-0.69	0.49	-0.52	0.99
30.91923571	-0.59	0.33	-0.42	0.79
30.92562294	-0.36	0.16	-0.36	0.53
30.93691969	-0.06	0.04	-0.33	0.33
30.94649291	0.27	-0.1	-0.34	0.44
30.97606373	0.5	-0.17	-0.33	0.62
30.9780829	0.55	-0.18	-0.26	0.63
30.98010087	0.49	-0.23	-0.15	0.56
30.98881197	0.45	-0.33	-0.04	0.55
30.99545383	0.52	-0.39	0.05	0.65
31.00513601	0.61	-0.42	0.12	0.75
31.01520491	0.7	-0.41	0.13	0.82
31.02518797	0.73	-0.37	0.13	0.82
31.03617573	0.75	-0.41	0.13	0.86
31.04565096	0.7	-0.36	0.1	0.79
31.075665	0.64	-0.23	0.12	0.69
31.07785177	0.5	-0.1	0.15	0.53
31.0797019	0.3	0.01	0.13	0.32
31.08974695	0.07	0.03	0.03	0.08
31.09448576	-0.15	0.05	-0.04	0.16
31.10459185	-0.33	0.12	-0.04	0.35
31.11458087	-0.5	0.24	-0.01	0.55
31.12460995	-0.6	0.31	0.02	0.67
31.13477278	-0.69	0.36	0	0.77
31.14484596	-0.77	0.39	-0.03	0.86
31.1791358	-0.77	0.36	-0.08	0.85
31.18140984	-0.68	0.29	-0.11	0.74
31.18332672	-0.58	0.26	-0.04	0.63
31.18620181	-0.47	0.19	0.06	0.51
31.20404291	-0.33	0.15	0.1	0.37
31.205935	-0.09	0.07	0.08	0.13
31.21948576	0.13	0.02	0.14	0.19
31.22346282	0.24	0.01	0.33	0.4
31.23705292	0.4	-0.2	0.58	0.73
31.24368095	0.51	-0.41	0.77	1.01
31.25364685	0.59	-0.45	0.79	1.08
31.2765739	0.68	-0.35	0.69	1.03
31.27891088	0.61	-0.19	0.55	0.84
31.28304577	0.5	-0.13	0.41	0.65
31.29300284	0.42	-0.2	0.34	0.57
31.30339098	0.33	-0.19	0.24	0.45
31.31314588	0.22	-0.07	0.17	0.28
31.32318187	0.09	0.08	0.15	0.19
31.33401394	0	0.08	0.11	0.13
31.3433547	-0.05	0.08	-0.02	0.09
31.35393476	-0.06	0.16	-0.18	0.24
31.37840271	0	0.18	-0.22	0.28
31.38034201	0.05	0.15	-0.15	0.21
31.38245583	0.03	0.16	-0.02	0.16
31.39241076	-0.04	0.13	0.15	0.2
31.40229988	-0.11	0.08	0.31	0.33
31.4124229	-0.2	0.06	0.39	0.44
31.42271376	-0.25	0.08	0.44	0.51
31.43252993	-0.23	0.12	0.48	0.54
31.44270992	-0.2	0.14	0.48	0.53
31.45272875	-0.24	0.18	0.49	0.57
31.47673273	-0.31	0.2	0.52	0.63
31.47881889	-0.38	0.21	0.6	0.74
31.48145485	-0.48	0.3	0.65	0.86
31.4916997	-0.51	0.36	0.59	0.85
31.50147676	-0.51	0.37	0.52	0.81
31.51239491	-0.61	0.36	0.47	0.85
31.52185297	-0.64	0.29	0.5	0.86
31.53246689	-0.66	0.28	0.51	0.87
31.54217887	-0.69	0.38	0.54	0.95
31.55258274	-0.7	0.43	0.53	0.97
31.57536387	-0.66	0.43	0.47	0.91
31.57735777	-0.56	0.41	0.29	0.75
31.58091283	-0.6	0.39	0.12	0.72
31.59099102	-0.75	0.39	-0.02	0.84
31.60080981	-0.84	0.41	-0.09	0.93
31.61080074	-0.92	0.47	-0.1	1.03
31.62114787	-1.01	0.57	-0.05	1.16
31.63114882	-1.18	0.67	0.06	1.35
31.64147997	-1.31	0.77	0.2	1.53
31.65184593	-1.46	0.78	0.26	1.67
31.68351173	-1.59	0.63	0.34	1.74
31.68554878	-1.75	0.34	0.4	1.82
31.687644	-1.87	0.08	0.45	1.92
31.70626688	-1.87	-0.07	0.4	1.91
31.70807886	-1.93	-0.29	0.28	1.97
31.7219038	-2.2	-0.47	0.24	2.26
31.72418284	-2.59	-0.58	0.05	2.65
31.73716879	-3.09	-0.84	-0.07	3.2
31.74000978	-3.17	-1.33	-0.24	3.44
31.75378585	-3.48	-2.03	-0.47	4.05
31.77845383	-4.09	-3.31	-0.92	5.34
31.78081083	-4.26	-5.13	-1.78	6.9
31.78275776	-4.76	-6.55	-3.08	8.66
31.78979182	-6.67	-7.27	-4.67	10.91
31.79934287	-9.58	-7.62	-6.89	14.04
31.80931687	-11.38	-7.53	-9.34	16.53
31.81964588	-12.28	-6.78	-12.15	18.55
31.82975101	-12.38	-6.63	-14.88	20.46
31.84029388	-12.56	-6.91	-16.52	21.87
31.8501668	-13.51	-7.13	-17.17	22.98
31.87733173	-14.8	-8.12	-16.85	23.85
31.87939382	-15.86	-8.9	-16.17	24.33
31.88149071	-17.06	-9.14	-15.73	24.94
31.88881779	-18.58	-9.12	-15.38	25.78
31.89890671	-19.96	-8.15	-16.06	26.88
31.90875483	-21.18	-6.85	-17.7	28.43
31.91885376	-22.57	-6.73	-18.84	30.16
31.9290278	-24.77	-8.07	-18.35	31.86
31.93954897	-28.3	-9.58	-16.2	33.98
31.94945192	-33.18	-10.08	-14.44	37.56
31.97623181	-37.58	-10.11	-14.31	41.46
31.97836089	-40.77	-11.1	-14.68	44.73
31.98045301	-43.57	-14.77	-13.41	47.91
31.98969483	-46.48	-20.32	-10.21	51.74
31.99809599	-49.77	-25.31	-6.11	56.16
32.00862288	-53.91	-30.51	-3	62.01
32.01853681	-59.95	-38.93	-1.25	71.49
32.02829599	-66.26	-52.64	0.22	84.62
32.03874779	-66.05	-64.59	2.54	92.41
32.04892397	-62.61	-72.91	7.25	96.37
32.05782175	-56.18	-76.23	9.99	95.22
32.08060384	-49.66	-74.85	10.34	90.41
32.0829587	-44	-71.71	9.25	84.63
32.0878818	-38.38	-66.93	7.96	77.56
32.098248	-34.37	-61.74	5.67	70.88
32.10753989	-30.27	-57.18	3.14	64.77
32.1175859	-26.01	-53.02	1.34	59.07
32.12783885	-22.99	-49.75	0.24	54.8
32.13717484	-19.92	-46.61	-0.1	50.68
32.14752579	-16.08	-44.22	0.34	47.05
32.15752697	-10.11	-41.39	2.44	42.67
32.17866898	-3.36	-36.47	5.6	37.05
32.18090987	1.24	-32.27	9.39	33.63
32.18678474	3.82	-28.91	13.35	32.07
32.19667196	4.69	-25.73	16.3	30.81
32.20672989	4.03	-22.99	17.47	29.15
32.21626377	2.13	-20.69	16.53	26.56
32.22642684	-0.43	-18.74	13.87	23.31
32.23608875	-3.35	-17.35	10.28	20.44
32.24627495	-6.02	-16.69	6.97	19.06
32.25616384	-8.12	-16.66	4.46	19.06
32.27804279	-9.86	-17.05	2.52	19.85
32.28004599	-11.21	-17.66	1.01	20.94
32.2854259	-12.04	-18	-0.03	21.65
32.29554796	-12.42	-18.16	-0.69	22.01
32.3054409	-12.64	-18.24	-1.18	22.22
32.31535387	-12.78	-18.28	-1.37	22.34
32.32554483	-12.68	-18.24	-1.34	22.25
32.3355248	-12.4	-18.17	-1.28	22.03
32.34531784	-11.94	-18.06	-1.15	21.68
32.35583186	-11.3	-17.94	-0.95	21.22
32.38312197	-10.27	-17.6	-0.6	20.38
32.38525391	-9.03	-17.07	-0.26	19.31
32.38741684	-8.03	-16.54	0.16	18.38
32.40724468	-7.32	-16.48	0.91	18.05
32.40921974	-6.57	-16.23	2.03	17.62
32.4194169	-6.53	-15.61	3	17.18
32.42436171	-7.36	-14.93	3.45	16.99
32.43739176	-8.68	-14.42	3.29	17.14
32.44493198	-10.37	-13.77	2.51	17.41
32.45525694	-11.85	-12.66	1.59	17.41
32.4791069	-12.29	-10.45	1.05	16.16
32.48136902	-12.68	-8.3	1	15.18
32.48387194	-12.89	-7.17	1.54	14.83
32.49382401	-12.6	-6.29	2.39	14.28
32.50419688	-12.66	-5.32	3.13	14.08
32.51395798	-13.53	-4.94	4.06	14.96
32.52381468	-15.32	-3.79	4.93	16.53
32.53428268	-18.35	-1.17	5.43	19.17
32.54449272	-21.52	2.42	5.61	22.37
32.5541749	-23.71	5.89	5.19	24.97
32.57941484	-24.4	8.25	3.49	25.99
32.58168387	-23.14	9.09	0.67	24.87
32.58385682	-20.41	8.47	-2.3	22.21
32.59355783	-17.42	6.31	-4.27	19.01
32.6030488	-14.84	4.98	-4.88	16.39
32.61312103	-12.61	5.18	-4.79	14.44
32.6233387	-10.68	5.66	-4.89	13.03
32.63309669	-9.6	5.67	-4.78	12.13
32.64318585	-9.52	5.38	-3.91	11.61
32.65375996	-9.11	4.55	-2.62	10.51
32.68508768	-7.94	3.61	-1.35	8.82
32.68721676	-6.35	2.91	-0.5	7
32.68906498	-4.68	2.25	-0.02	5.19
32.70258379	-3.2	1.5	0.05	3.53
32.70475984	-2.11	0.89	-0.23	2.3
32.71810579	-1.57	0.62	-0.82	1.87
32.72327375	-1.71	0.7	-1.43	2.33
32.73531771	-2.26	0.72	-1.76	2.95
32.74341297	-2.58	0.64	-1.61	3.1
32.75398684	-2.65	0.45	-1.39	3.02
32.78548193	-2.51	0.16	-1.16	2.76
32.78803587	-2.13	0	-0.94	2.32
32.78993082	-1.83	0.08	-0.98	2.07
32.80255175	-1.9	0.4	-1.15	2.25
32.80459881	-2.16	0.93	-1.41	2.74
32.81830382	-2.28	1.23	-1.6	3.04
32.82266188	-2.45	1.22	-1.53	3.13
32.83714771	-2.64	1.09	-1.19	3.09
32.84267378	-2.63	0.93	-0.68	2.87
32.85388899	-2.33	0.69	-0.14	2.43
32.8836298	-2.11	0.54	0.31	2.19
32.88636875	-1.95	0.51	0.51	2.07
32.8886528	-1.67	0.49	0.39	1.78
32.89252472	-1.44	0.54	-0.02	1.53
32.90250182	-1.46	0.75	-0.67	1.77
32.91254091	-1.43	0.96	-1.23	2.11
32.92268372	-1.56	1.14	-1.51	2.45
32.93227577	-1.66	1.29	-1.6	2.64
32.94206882	-1.29	1.12	-1.65	2.37
32.95175791	-0.98	0.9	-1.57	2.05
32.96282768	-0.77	0.64	-1.46	1.77
32.98327184	-0.71	0.32	-1.47	1.66
32.98564291	-1.09	0.21	-1.54	1.89
32.99150681	-1.6	0.2	-1.54	2.22
33.00123382	-1.85	0.23	-1.5	2.39
33.01121688	-2.07	0.39	-1.45	2.55
33.02133179	-2.37	0.64	-1.34	2.79
33.03147697	-2.65	0.87	-1.24	3.05
33.04259872	-2.82	0.91	-1.16	3.18
33.05184984	-3.04	0.86	-1.06	3.33
33.06236386	-3.23	0.79	-0.84	3.42
33.08649182	-3.26	0.59	-0.5	3.35
33.08855295	-3.36	0.49	0.01	3.39
33.09107494	-3.38	0.53	0.54	3.46
33.10268593	-3.35	0.55	1.03	3.54
33.11069083	-3.42	0.6	1.38	3.73
33.12058091	-3.57	0.7	1.63	3.98
33.13029099	-3.67	0.83	1.75	4.14
33.14181781	-3.74	0.91	1.73	4.22
33.15118384	-3.72	0.97	1.67	4.19
33.16140795	-3.52	1.02	1.54	3.97
33.18321991	-3.24	1.06	1.39	3.68
33.1858449	-2.87	1.03	1.25	3.29
33.19013882	-2.51	0.94	1.06	2.88
33.19989681	-2.17	0.84	0.87	2.48
33.2097578	-2.02	0.89	0.66	2.3
33.21961188	-1.9	1.05	0.43	2.21
33.23059177	-1.68	1.14	0.24	2.04
33.24094868	-1.36	1.12	0.05	1.76
33.25048184	-1.02	1.02	-0.16	1.45
33.26078486	-0.69	0.98	-0.41	1.26
33.28316975	-0.4	0.99	-0.62	1.23
33.28535795	-0.18	0.99	-0.72	1.23
33.28936386	-0.02	0.95	-0.74	1.2
33.29932189	0.09	0.8	-0.7	1.06
33.30950403	0.17	0.71	-0.65	0.97
33.31881881	0.28	0.76	-0.61	1.01
33.32986593	0.31	0.83	-0.54	1.03
33.34007597	0.19	0.85	-0.45	0.98
33.34992075	0.04	0.86	-0.42	0.95
33.36023378	-0.11	0.9	-0.37	0.97
33.3916378	-0.23	0.9	-0.26	0.96
33.39362001	-0.27	0.9	-0.08	0.94
33.39526391	-0.29	0.93	0.16	0.98
33.40261173	-0.33	0.93	0.44	1.08
33.40857172	-0.41	0.89	0.65	1.17
33.41823578	-0.5	0.8	0.81	1.24
33.42833591	-0.57	0.67	0.93	1.28
33.43906593	-0.66	0.61	1.05	1.38
33.44916081	-0.72	0.59	1.13	1.46
33.45924187	-0.75	0.58	1.16	1.49
33.48783493	-0.76	0.53	1.17	1.49
33.48976278	-0.73	0.48	1.12	1.42
33.49160886	-0.73	0.52	1.02	1.35
33.50261497	-0.76	0.57	0.96	1.35
33.50771379	-0.83	0.56	0.94	1.37
33.51837087	-0.85	0.51	0.9	1.33
33.52853084	-0.81	0.49	0.83	1.25
33.53848982	-0.68	0.41	0.75	1.09
33.54828382	-0.52	0.3	0.67	0.89
33.55875182	-0.34	0.17	0.62	0.72
33.58839369	-0.12	0.06	0.56	0.57
33.59053183	0.07	-0.01	0.5	0.5
33.59232569	0.17	-0.13	0.48	0.52
33.60293484	0.12	-0.3	0.49	0.58
33.60691786	0.13	-0.3	0.42	0.53
33.61852074	0.14	-0.19	0.31	0.38
33.62716103	0.19	-0.12	0.23	0.32
33.63758588	0.29	-0.1	0.22	0.37
33.64774489	0.34	-0.06	0.23	0.41
33.6581049	0.3	0	0.19	0.35
33.6889019	0.18	0.01	0.11	0.21
33.6910038	0.03	-0.03	-0.01	0.04
33.69275689	-0.02	-0.1	-0.1	0.14
33.70310688	0.05	-0.15	-0.14	0.21
33.70619297	0.16	-0.16	-0.14	0.26
33.7190268	0.21	-0.12	-0.15	0.28
33.72618985	0.2	-0.13	-0.19	0.3
33.73631287	0.12	-0.12	-0.03	0.17
33.74692774	-0.03	-0.1	0.19	0.21
33.75700998	-0.17	-0.13	0.39	0.44
33.767169	-0.3	-0.17	0.68	0.76
33.79231381	-0.23	-0.28	0.89	0.96
33.794559	0.13	-0.48	0.93	1.05
33.79662991	0.54	-0.61	0.62	1.02
33.8056128	0.86	-0.6	0.13	1.05
33.81529474	1.19	-0.63	-0.3	1.37
33.82547688	1.27	-0.58	-0.51	1.48
33.8354938	1.13	-0.5	-0.7	1.42
33.84521198	0.89	-0.44	-0.65	1.18
33.85641098	0.51	-0.37	-0.43	0.76
33.86623669	0.28	-0.31	-0.28	0.5
33.88882494	0.28	-0.27	-0.27	0.47
33.89085197	0.32	-0.23	-0.28	0.48
33.89495683	0.34	-0.23	-0.28	0.49
33.90469289	0.28	-0.26	-0.31	0.49
33.91454482	0.26	-0.22	-0.46	0.57
33.92472982	0.31	-0.1	-0.58	0.66
33.93470001	0.32	0.06	-0.57	0.65
33.9455049	0.25	0.16	-0.52	0.59
33.95524597	0.17	0.12	-0.46	0.5
33.96539593	0.04	0.08	-0.41	0.41
33.98815393	-0.11	0.11	-0.35	0.38
33.99018288	-0.31	0.17	-0.25	0.43
33.9943037	-0.44	0.23	-0.13	0.51
34.00469089	-0.53	0.32	-0.06	0.62
34.01416588	-0.61	0.42	-0.05	0.74
34.02388668	-0.61	0.48	-0.05	0.77
34.03458881	-0.65	0.55	-0.06	0.85
34.04475069	-0.73	0.64	-0.05	0.97
34.05469584	-0.69	0.64	0.01	0.94
34.06459093	-0.41	0.44	0.24	0.64
34.08947587	-0.19	0.16	0.61	0.65
34.09171295	-0.11	0	0.88	0.88
34.093503	-0.03	-0.1	0.92	0.92
34.10657382	0.03	-0.03	0.86	0.86
34.11341476	0.05	0.11	0.82	0.82
34.12356687	0.03	0.24	0.65	0.69
34.13407683	-0.08	0.38	0.47	0.6
34.14386487	-0.18	0.44	0.37	0.6
34.15432191	-0.25	0.47	0.3	0.61
34.16402102	-0.45	0.61	0.27	0.8
34.19397068	-0.63	0.72	0.33	1.01
34.19620895	-0.65	0.62	0.54	1.04
34.19796896	-0.7	0.56	0.68	1.12
34.20644569	-0.73	0.6	0.7	1.17
34.21259975	-0.61	0.6	0.71	1.11
34.22233582	-0.46	0.53	0.71	0.99
34.23291302	-0.41	0.53	0.55	0.86
34.24283695	-0.32	0.47	0.28	0.63
34.25345683	0	0.37	-0.04	0.37
34.26335192	0.36	0.33	-0.31	0.57
34.29484701	0.48	0.41	-0.44	0.76
34.29706287	0.38	0.47	-0.43	0.74
34.298841	0.08	0.52	-0.27	0.59
34.30434799	-0.24	0.6	-0.05	0.64
34.31213474	-0.4	0.65	0.16	0.77
34.32172871	-0.36	0.6	0.32	0.76
34.33193493	-0.24	0.51	0.43	0.7
34.34199572	-0.19	0.45	0.41	0.63
34.35237288	-0.14	0.5	0.29	0.59
34.3623178	-0.22	0.64	0.2	0.7
34.39256477	-0.39	0.69	0.03	0.79
34.39502573	-0.27	0.47	-0.14	0.55
34.39693284	0.11	0.24	-0.08	0.27
34.40729189	0.5	0.08	0.1	0.51
34.41122484	0.8	-0.11	0.35	0.88
