time,ax,ay,az,atotal
0.017509937286376953,0.01,0.17,-0.02,0.17
0.01976299285888672,-0.05,0.28,0.11,0.3
0.025769710540771484,-0.04,0.05,0.08,0.1
0.040544986724853516,-0.04,-0.09,0.12,0.15
0.0456089973449707,-0.01,-0.16,0.23,0.28
0.05629587173461914,0.03,-0.12,0.21,0.24
0.06624388694763184,-0.01,-0.01,0.13,0.13
0.0762786865234375,-0.01,0.04,0.06,0.07
0.08646988868713379,0.01,0.01,-0.07,0.07
0.09642887115478516,0.04,-0.01,-0.27,0.27
0.1146078109741211,0.05,0.02,-0.29,0.29
0.1168680191040039,-0.02,0.19,-0.13,0.23
0.12542986869812012,0.07,0.07,-0.03,0.1
0.13499689102172852,0.13,-0.14,-0.15,0.24
0.1456279754638672,0.02,-0.13,-0.27,0.3
0.15538501739501953,0.02,-0.02,-0.04,0.04
0.1659097671508789,-0.05,0.03,0.2,0.2
0.17646169662475586,-0.21,-0.04,0.23,0.31
0.1860036849975586,-0.18,-0.1,0.03,0.2
0.19582080841064453,-0.03,-0.11,-0.05,0.12
0.21545076370239258,-0.02,0.02,-0.07,0.07
0.2177867889404297,-0.06,0.11,-0.17,0.21
0.22432470321655273,0.05,0.04,-0.26,0.26
0.23458385467529297,0.06,-0.04,-0.24,0.25
0.24465489387512207,-0.17,0.05,-0.24,0.29
0.25498199462890625,-0.16,0.16,-0.13,0.26
0.2650887966156006,0.13,0.09,-0.07,0.17
0.2750968933105469,0.28,-0.02,-0.03,0.28
0.2855668067932129,0.16,-0.01,0.03,0.16
0.2955198287963867,-0.06,0.02,-0.05,0.08
0.3148007392883301,-0.13,-0.19,-0.23,0.32
0.3170919418334961,-0.11,-0.41,-0.36,0.55
0.3238186836242676,-0.27,0.35,0.04,0.44
0.33384084701538086,-0.2,0.6,0.52,0.81
0.3439769744873047,-0.1,0.24,0.59,0.64
0.35389089584350586,-0.04,-0.12,0.58,0.59
0.3642258644104004,-0.08,-0.3,0.17,0.35
0.3741168975830078,0.03,-0.31,-0.55,0.63
0.38443899154663086,0.18,-0.04,-0.8,0.82
0.3939499855041504,0.24,0.16,-0.58,0.64
0.41977381706237793,0.1,0.26,-0.15,0.31
0.42211294174194336,-0.11,0.23,0.12,0.28
0.42398500442504883,-0.06,0.13,0.22,0.26
0.43935585021972656,0.04,0.02,0.12,0.12
0.44278383255004883,0.13,-0.07,0.13,0.19
0.45621585845947266,-0.03,-0.07,0.98,0.98
0.46332287788391113,-0.27,0.03,0.34,0.43
0.47292375564575195,-0.23,-0.1,0.09,0.26
0.4833827018737793,-0.1,-0.1,0.1,0.17
0.49339985847473145,0.05,-0.16,0.02,0.16
0.5187778472900391,0.2,-0.16,0.05,0.26
0.5208978652954102,0.17,-0.02,0.11,0.2
0.5227837562561035,-0.06,0.12,0.05,0.14
0.5417280197143555,-0.17,0.18,-0.12,0.27
0.5446538925170898,-0.06,0.14,-0.32,0.35
0.5554080009460449,0.01,0.18,-0.28,0.33
0.5623228549957275,-0.04,0.29,-0.09,0.3
0.5725958347320557,-0.03,0.19,-0.06,0.2
0.582664966583252,0.11,-0.02,-0.24,0.26
0.5927777290344238,0.22,-0.05,-0.39,0.45
0.6191797256469727,0.23,0.0,-0.31,0.38
0.6213479042053223,0.16,-0.04,-0.07,0.17
0.6232399940490723,0.09,-0.09,0.06,0.14
0.6407577991485596,0.12,-0.07,0.1,0.17
0.6430139541625977,0.24,-0.11,-0.18,0.31
0.6552510261535645,0.27,-0.09,-0.58,0.64
0.6616029739379883,0.17,-0.03,-0.66,0.68
0.6720027923583984,-0.01,0.07,-0.31,0.31
0.6817407608032227,-0.15,0.07,0.06,0.17
0.692039966583252,-0.02,-0.04,0.22,0.22
0.7207789421081543,0.22,-0.21,0.08,0.31
0.7230119705200195,0.23,-0.19,-0.18,0.34
0.7248728275299072,0.06,-0.03,-0.27,0.27
0.7411990165710449,0.12,0.07,-0.34,0.36
0.7440948486328125,0.0,0.13,-0.24,0.27
0.7564330101013184,-0.13,0.15,-0.02,0.19
0.7610359191894531,-0.19,0.14,0.14,0.27
0.7710199356079102,-0.13,0.04,0.07,0.15
0.7815108299255371,-0.04,-0.01,-0.2,0.2
0.7911977767944336,0.04,0.02,-0.45,0.45
0.8019309043884277,-0.05,0.05,-0.65,0.65
0.8215370178222656,-0.1,0.1,-0.75,0.76
0.8236298561096191,-0.04,0.06,-0.93,0.93
0.8296318054199219,0.0,0.01,-0.93,0.93
0.8398988246917725,0.08,-0.1,-0.85,0.85
0.8500678539276123,0.17,-0.24,-0.68,0.74
0.8600850105285645,0.07,-0.24,-0.68,0.72
0.8707380294799805,-0.22,-0.14,-0.61,0.66
0.880699872970581,-0.16,-0.06,-0.53,0.55
0.8907938003540039,-0.19,-0.07,-0.48,0.52
0.9006657600402832,-0.27,0.04,-0.34,0.43
0.9217808246612549,-0.26,0.05,-0.17,0.31
0.9238748550415039,-0.17,-0.01,-0.25,0.3
0.9291777610778809,-0.11,-0.07,-0.52,0.53
0.9408860206604004,-0.15,-0.05,-0.85,0.86
0.9496958255767822,-0.23,-0.14,-1.26,1.28
0.9593977928161621,-0.32,0.13,-1.17,1.21
0.9697380065917969,-0.39,0.24,-1.17,1.25
0.9798297882080078,-0.45,-0.03,-1.48,1.54
0.9900288581848145,-0.35,-0.19,-1.62,1.66
0.9996469020843506,-0.41,-0.2,-1.62,1.68
1.0190138816833496,-0.36,-0.18,-1.57,1.62
1.0210638046264648,-0.29,-0.07,-1.24,1.27
1.0284178256988525,-0.18,-0.08,-0.88,0.9
1.0406899452209473,-0.14,-0.24,-0.82,0.86
1.0485568046569824,0.02,-0.58,-0.96,1.12
1.0590057373046875,0.08,-0.46,-0.26,0.53
1.069227695465088,-0.04,-0.2,0.37,0.42
1.0790128707885742,-0.04,-0.35,0.24,0.42
1.089115858078003,0.09,-0.37,0.19,0.42
1.0993409156799316,0.18,-0.34,0.04,0.38
1.1224408149719238,0.11,-0.32,0.17,0.37
1.1246628761291504,0.04,-0.21,0.6,0.63
1.1276259422302246,-0.03,-0.12,1.12,1.12
1.1411089897155762,0.05,-0.15,1.44,1.44
1.147782802581787,0.15,-0.19,1.4,1.42
1.1584668159484863,0.13,-0.15,1.45,1.46
1.1683459281921387,0.16,-0.15,1.17,1.19
1.1784520149230957,0.28,-0.16,0.6,0.68
1.1883459091186523,0.27,0.05,0.11,0.29
1.1982827186584473,0.22,0.23,-0.1,0.33
1.2257838249206543,0.12,0.19,-0.22,0.31
1.227797031402588,0.09,0.13,-0.46,0.48
1.2297630310058594,0.13,0.17,-0.68,0.71
1.2406518459320068,0.02,0.34,-0.66,0.74
1.2467846870422363,-0.07,0.39,-0.75,0.84
1.257157802581787,0.1,0.29,-0.89,0.94
1.2669687271118164,0.29,0.05,-1.04,1.08
1.2776007652282715,0.49,-0.16,-1.07,1.18
1.2879610061645508,0.48,-0.22,-0.95,1.08
1.2975099086761475,0.4,-0.15,-0.8,0.9
1.3247458934783936,0.53,-0.17,-0.9,1.05
1.3271117210388184,0.61,-0.32,-1.29,1.46
1.3290109634399414,0.56,-0.42,-1.77,1.9
1.3403596878051758,0.19,-0.29,-2.21,2.23
1.3459539413452148,0.01,-0.11,-2.44,2.44
1.3566007614135742,-0.02,-0.02,-2.11,2.11
1.3664569854736328,-0.14,-0.06,-1.29,1.29
1.3761508464813232,0.2,-0.3,-0.34,0.49
1.3869500160217285,0.43,-0.44,0.48,0.78
1.39689302444458,0.51,-0.35,0.87,1.06
1.4245877265930176,0.62,-0.61,0.49,0.99
1.4268059730529785,0.83,-1.13,-0.12,1.4
1.4286768436431885,0.53,-1.1,-0.41,1.28
1.4396018981933594,-0.04,-0.65,-0.8,1.03
1.4453177452087402,-0.07,-0.26,-1.26,1.28
1.456758975982666,-0.03,-0.11,-1.05,1.05
1.4657988548278809,-0.25,0.24,-0.48,0.59
1.475937843322754,-0.42,0.45,0.1,0.62
1.4861629009246826,-0.18,0.41,0.61,0.75
1.496194839477539,-0.21,0.23,0.83,0.88
1.5232408046722412,-0.42,-0.12,0.86,0.96
1.5254096984863281,-0.46,-0.28,1.18,1.29
1.5272397994995117,-0.46,-0.36,1.3,1.42
1.5419228076934814,-0.4,-0.29,1.09,1.19
1.544961929321289,-0.32,-0.16,0.85,0.92
1.5573019981384277,-0.05,0.07,0.77,0.77
1.5649068355560303,-0.01,0.03,0.26,0.26
1.5748000144958496,-0.11,-0.02,0.0,0.11
1.5853748321533203,-0.1,-0.37,0.29,0.48
1.5953607559204102,0.33,-1.25,0.41,1.35
1.6052947044372559,-0.11,-0.29,0.67,0.73
1.6264398097991943,-0.17,0.32,0.82,0.89
1.6284217834472656,0.04,0.27,0.76,0.8
1.633957862854004,-0.01,0.22,1.09,1.11
1.6438038349151611,-0.07,0.09,1.46,1.46
1.6551988124847412,-0.22,-0.05,1.34,1.35
1.6647157669067383,-0.29,0.07,0.76,0.81
1.674785852432251,-0.15,0.24,-0.18,0.33
1.6850848197937012,0.1,0.27,-0.99,1.03
1.6954407691955566,0.2,0.34,-1.51,1.56
1.7044658660888672,0.16,0.44,-1.32,1.4
1.7227587699890137,-0.19,0.23,-0.51,0.59
1.724991798400879,-0.05,0.23,-0.38,0.44
1.733719825744629,0.15,0.3,-0.21,0.39
1.7430768013000488,-0.04,0.23,0.81,0.84
1.753570795059204,0.22,-0.25,0.07,0.34
1.763502836227417,0.38,-0.83,-0.33,0.97
1.7736778259277344,0.2,-0.8,-0.5,0.96
1.7838678359985352,0.1,-0.5,-0.8,0.94
1.7937469482421875,-0.17,-0.26,-0.38,0.49
1.8039259910583496,-0.42,-0.05,0.17,0.45
1.8214616775512695,-0.27,0.05,0.17,0.32
1.82350492477417,0.02,-0.06,-0.07,0.09
1.8325138092041016,0.06,-0.21,-0.32,0.38
1.8424098491668701,0.27,-0.32,-0.51,0.65
1.8528459072113037,0.39,-0.4,-0.7,0.89
1.862623691558838,0.4,-0.42,-0.98,1.13
1.8735108375549316,0.74,-1.11,-1.47,1.98
1.8829460144042969,0.65,-0.96,-1.64,2.0
1.8933939933776855,0.23,-0.07,-1.44,1.45
1.9034037590026855,-0.07,0.13,-1.41,1.41
1.9217798709869385,-0.26,0.09,-1.33,1.35
1.9238708019256592,-0.29,0.17,-0.97,1.02
1.9322519302368164,-0.06,-0.11,-0.81,0.81
1.9415338039398193,0.11,-0.48,-0.75,0.89
1.9520049095153809,-0.01,-0.55,-0.51,0.75
1.9620966911315918,-0.25,-0.41,-0.17,0.5
1.972200870513916,-0.29,-0.36,-0.04,0.46
1.9822278022766113,-0.26,-0.43,-0.04,0.5
1.9928998947143555,-0.24,-0.53,-0.05,0.58
2.0026769638061523,-0.32,-0.48,0.11,0.58
2.03220272064209,-0.41,-0.25,0.04,0.48
2.0343778133392334,-0.53,0.03,-0.16,0.55
2.036350727081299,-0.53,0.19,-0.26,0.62
2.040794849395752,-0.4,0.19,-0.34,0.55
2.0549240112304688,-0.33,0.12,-0.21,0.4
2.060689926147461,-0.29,-0.01,0.25,0.38
2.072025775909424,-0.3,-0.13,0.63,0.7
2.081650733947754,-0.43,-0.12,0.94,1.04
2.091423988342285,-0.55,0.06,1.09,1.22
2.1018528938293457,-0.51,0.19,1.02,1.15
2.1292238235473633,-0.18,0.13,0.75,0.78
2.1312308311462402,0.04,-0.07,0.41,0.41
2.1333248615264893,0.11,-0.24,0.22,0.34
2.140267848968506,0.21,-0.33,0.09,0.4
2.150251865386963,0.28,-0.35,-0.07,0.45
2.160569906234741,0.23,-0.26,-0.27,0.43
2.170527935028076,0.07,-0.09,-0.21,0.23
2.1804258823394775,-0.22,0.05,0.14,0.26
2.1936960220336914,-0.38,0.16,0.53,0.67
2.2006688117980957,-0.44,0.3,0.9,1.04
2.2292048931121826,-0.4,0.26,1.13,1.22
2.231334686279297,-0.32,0.08,1.29,1.33
2.2334237098693848,-0.3,0.01,1.64,1.66
2.23958683013916,-0.23,0.0,1.94,1.95
2.2495579719543457,-0.04,-0.08,1.93,1.93
2.259967803955078,0.2,-0.15,1.67,1.68
2.2698168754577637,0.35,-0.21,1.37,1.42
2.28067684173584,0.23,-0.19,0.99,1.03
2.290515899658203,0.03,-0.02,0.83,0.83
2.299928903579712,0.11,0.0,0.52,0.53
2.327922821044922,0.15,-0.09,0.1,0.2
2.329927921295166,0.11,-0.13,-0.02,0.17
2.3319919109344482,0.07,-0.11,0.01,0.13
2.341359853744507,0.07,-0.13,0.05,0.15
2.348531723022461,0.13,-0.23,0.0,0.26
2.3590970039367676,-0.01,-0.22,0.03,0.22
2.368914842605591,-0.17,-0.05,0.35,0.39
2.3792238235473633,-0.17,0.01,0.42,0.45
2.389521837234497,-0.27,0.08,0.41,0.49
2.399590015411377,-0.22,0.19,0.45,0.53
2.4089608192443848,-0.15,0.14,0.47,0.51
2.427794933319092,-0.12,0.13,0.56,0.58
2.430034875869751,-0.08,0.03,0.71,0.71
2.4378910064697266,-0.15,0.0,0.81,0.82
2.4476728439331055,-0.1,0.1,0.81,0.82
2.458469867706299,0.05,0.08,0.79,0.79
2.4680988788604736,0.15,0.03,0.76,0.77
2.4787328243255615,0.13,0.1,0.69,0.7
2.488426685333252,0.04,0.2,0.69,0.71
2.4985878467559814,0.13,0.27,0.68,0.74
2.508596897125244,0.12,0.21,0.6,0.64
2.5296669006347656,0.12,0.19,0.62,0.65
2.531644821166992,0.16,0.22,0.58,0.64
2.5372300148010254,0.05,0.31,0.54,0.62
2.5474088191986084,0.01,0.38,0.62,0.72
2.5572710037231445,-0.04,0.38,0.69,0.78
2.567523956298828,-0.07,0.46,0.6,0.75
2.578162908554077,-0.27,0.72,0.5,0.91
2.5879898071289062,-0.22,0.45,0.2,0.53
2.597545862197876,0.2,0.19,0.19,0.33
2.608186721801758,0.16,0.2,0.25,0.35
2.6283249855041504,-0.12,0.17,0.62,0.65
2.6302809715270996,-0.38,0.33,0.92,1.04
2.6364989280700684,-0.4,0.41,0.82,1.0
2.6463799476623535,-0.1,0.13,0.52,0.54
2.6566758155822754,0.22,-0.2,0.31,0.42
2.6669087409973145,0.26,-0.35,0.29,0.52
2.6769518852233887,0.39,-0.36,0.37,0.64
2.6876440048217773,0.49,-0.32,0.63,0.85
2.6971797943115234,0.57,-0.31,0.7,0.95
2.707258701324463,0.52,-0.25,0.62,0.84
2.728759765625,0.23,-0.07,0.5,0.55
2.7308249473571777,0.02,0.15,0.33,0.36
2.7356057167053223,-0.19,0.26,0.27,0.42
2.7464168071746826,-0.3,0.27,0.32,0.51
2.7560598850250244,-0.42,0.24,0.35,0.59
2.766139030456543,-0.49,0.17,0.41,0.66
2.775796890258789,-0.33,0.21,0.39,0.55
2.786618709564209,-0.26,0.22,0.29,0.44
2.796095848083496,-0.2,0.15,0.36,0.43
2.8066940307617188,-0.16,0.22,0.5,0.56
2.8350677490234375,-0.27,0.32,0.54,0.68
2.8371739387512207,-0.23,0.42,0.57,0.74
2.8392908573150635,-0.14,0.5,0.39,0.64
2.8606319427490234,0.08,0.36,0.13,0.39
2.8637118339538574,0.37,0.11,-0.18,0.42
2.8738858699798584,0.42,-0.04,-0.25,0.49
2.8769378662109375,0.46,-0.04,0.06,0.46
2.890333890914917,0.34,-0.11,0.68,0.76
2.8949337005615234,0.06,-0.05,0.75,0.75
2.9063398838043213,-0.17,0.19,0.48,0.54
2.9294090270996094,-0.02,0.32,0.41,0.52
2.9317307472229004,0.05,0.32,0.1,0.33
2.9343268871307373,0.05,0.23,-0.07,0.24
2.9442508220672607,0.03,0.08,-0.16,0.18
2.9543557167053223,-0.14,0.16,-0.22,0.3
2.96429181098938,-0.37,0.45,-0.02,0.58
2.9744298458099365,-0.34,0.48,0.03,0.58
2.9845468997955322,0.02,0.17,-0.16,0.23
2.994687795639038,0.0,0.23,-0.23,0.32
3.0052309036254883,-0.27,0.27,-0.24,0.45
3.0336968898773193,-0.06,-0.22,-0.57,0.61
3.035773754119873,0.34,-0.56,-0.78,1.01
3.0378527641296387,0.31,-0.35,-1.01,1.11
3.0438337326049805,0.14,0.01,-0.99,0.99
3.0535058975219727,-0.12,0.3,-0.78,0.84
3.0634727478027344,-0.23,0.36,-0.81,0.91
3.073542833328247,0.15,0.15,-0.89,0.91
3.083791732788086,0.63,-0.36,-0.79,1.07
3.0941028594970703,0.9,-0.7,-0.85,1.42
3.104435920715332,0.91,-0.81,-0.47,1.3
3.1359949111938477,0.11,-1.19,0.47,1.28
3.1379919052124023,0.4,-1.39,-0.02,1.44
3.1400868892669678,0.94,-0.86,-0.01,1.27
3.159609794616699,0.31,-0.15,-0.21,0.4
3.1618528366088867,0.17,-0.08,-1.02,1.03
3.1722359657287598,0.69,-0.22,-1.16,1.36
3.17512583732605,0.95,0.04,-0.95,1.34
3.190232753753662,0.79,0.27,-0.88,1.21
3.1940808296203613,0.43,0.2,-0.35,0.58
3.2048897743225098,-0.03,0.1,0.33,0.34
3.212981700897217,-0.31,0.21,0.96,1.03
3.2386298179626465,-0.6,0.54,1.11,1.37
3.2406396865844727,-0.04,-0.33,0.1,0.34
3.2427008152008057,-0.08,-0.11,-0.09,0.16
3.258430004119873,-0.31,0.6,0.14,0.68
3.262022018432617,-0.48,0.56,0.41,0.84
3.276744842529297,-0.78,0.68,0.68,1.23
3.282097816467285,-0.69,0.73,0.72,1.23
3.2920379638671875,-0.56,0.57,0.7,1.06
3.302680015563965,-0.49,0.5,0.7,0.99
3.3123178482055664,-0.53,0.55,0.74,1.06
3.3348817825317383,-0.41,0.57,0.69,0.98
3.337068796157837,-0.25,0.57,0.49,0.79
3.341403007507324,-0.11,0.54,0.36,0.65
3.351111888885498,-0.13,0.36,0.73,0.82
3.3619236946105957,-0.32,0.34,1.37,1.44
3.371473789215088,-0.32,0.42,1.1,1.22
3.381840705871582,-0.23,0.47,0.87,1.01
3.392007827758789,-0.37,0.32,1.18,1.27
3.401796817779541,-0.22,0.18,1.22,1.25
3.411939859390259,0.0,0.21,0.9,0.92
3.4314017295837402,0.17,0.16,0.52,0.57
3.433708906173706,0.34,0.08,0.24,0.42
3.440959930419922,0.24,0.14,0.29,0.4
3.450562000274658,0.2,0.18,0.51,0.57
3.4607667922973633,0.24,0.05,0.51,0.56
3.4707980155944824,0.18,-0.02,0.56,0.58
3.480743885040283,0.15,0.0,0.73,0.74
3.4908318519592285,0.22,0.01,0.82,0.84
3.5016679763793945,0.26,0.0,0.78,0.82
3.511145830154419,0.31,-0.02,0.61,0.68
3.53385591506958,0.29,-0.02,0.46,0.54
3.536057949066162,0.42,-0.03,0.38,0.56
3.540294885635376,0.39,-0.04,0.4,0.56
3.549888849258423,0.36,-0.01,0.43,0.56
3.560145854949951,0.32,-0.01,0.35,0.47
3.57004976272583,0.3,-0.11,0.24,0.39
3.5804357528686523,0.46,-0.24,0.32,0.6
3.590569019317627,0.48,-0.19,0.37,0.63
3.6005859375,0.25,-0.05,0.35,0.43
3.610558032989502,0.11,0.04,0.38,0.39
3.6405386924743652,0.25,-0.02,0.27,0.36
3.642725944519043,0.53,-0.23,0.05,0.57
3.6446146965026855,0.7,-0.49,0.13,0.86
3.6585569381713867,0.66,-0.52,0.43,0.94
3.6604089736938477,0.78,-0.48,0.56,1.07
3.6731297969818115,0.92,-0.58,0.51,1.2
3.6792149543762207,0.89,-0.67,0.4,1.18
3.6897077560424805,0.58,-0.81,0.61,1.16
3.6994357109069824,0.47,-0.64,0.93,1.22
3.709263801574707,0.54,-0.58,0.94,1.22
3.739633798599243,0.73,-0.9,0.62,1.31
3.7418599128723145,0.76,-0.86,0.09,1.15
3.7437238693237305,0.09,-0.74,-0.28,0.79
3.7590768337249756,-1.16,-0.84,-0.55,1.53
3.760960817337036,-2.11,-0.76,-0.71,2.35
3.7714178562164307,-2.82,-0.85,-0.85,3.06
3.77827787399292,-4.09,-1.11,-1.32,4.43
3.7893247604370117,-6.34,-1.28,-1.76,6.7
3.7983999252319336,-8.8,-0.76,-2.44,9.16
3.8083677291870117,-10.74,-0.04,-4.0,11.46
3.8345158100128174,-11.99,0.31,-6.27,13.53
3.836869716644287,-13.69,0.3,-8.87,16.31
3.838967800140381,-14.91,0.01,-11.13,18.6
3.8479137420654297,-16.73,-0.17,-12.67,20.98
3.8581278324127197,-19.66,-0.19,-13.98,24.12
3.8683629035949707,-22.35,-0.22,-15.01,26.92
3.8785839080810547,-24.56,-0.43,-15.69,29.14
3.888673782348633,-26.9,-0.84,-15.94,31.27
3.898465871810913,-29.04,-1.52,-15.48,32.94
3.9085140228271484,-31.38,-2.16,-14.58,34.66
3.931389808654785,-34.07,-3.11,-13.81,36.89
3.9334397315979004,-36.21,-5.01,-13.16,38.85
3.937039852142334,-38.31,-7.95,-11.81,40.86
3.9471898078918457,-39.98,-11.73,-9.65,42.76
3.9574227333068848,-41.2,-15.45,-7.15,44.57
3.966982841491699,-41.38,-19.38,-4.41,45.9
3.977970838546753,-40.58,-23.03,-1.8,46.69
3.9878897666931152,-40.94,-25.71,-0.03,48.34
3.9974169731140137,-42.92,-27.81,-0.14,51.14
4.0082948207855225,-45.31,-32.99,-1.78,56.07
4.015378952026367,-46.1,-41.96,-2.0,62.36
4.030243873596191,-44.57,-51.02,1.6,67.76
4.034836769104004,-38.67,-56.42,7.86,68.85
4.045146942138672,-32.11,-54.91,12.44,64.81
4.054895877838135,-28.78,-50.05,14.02,59.41
4.0648298263549805,-26.44,-45.17,12.03,53.7
4.074803829193115,-25.1,-41.79,9.23,49.61
4.085104942321777,-24.3,-39.52,6.34,46.82
4.095309734344482,-22.54,-37.8,3.52,44.15
4.10544490814209,-21.45,-36.21,2.08,42.13
4.115119934082031,-20.3,-34.71,1.42,40.23
4.130489826202393,-18.33,-33.63,1.41,38.32
4.134047031402588,-16.3,-32.87,2.04,36.74
4.144510746002197,-14.08,-31.49,2.72,34.6
4.154212951660156,-11.57,-29.29,3.0,31.63
4.164480686187744,-9.85,-27.13,3.35,29.05
4.174779891967773,-8.37,-25.27,3.92,26.9
4.1840808391571045,-6.76,-23.67,4.64,25.04
4.195003986358643,-5.03,-22.34,5.29,23.5
4.204429864883423,-2.97,-21.09,5.88,22.09
4.215333938598633,-1.1,-19.9,6.51,20.96
4.235052824020386,0.32,-18.68,7.42,20.1
4.237396717071533,1.47,-17.31,8.24,19.22
4.243084907531738,2.09,-16.04,8.52,18.28
4.253826856613159,2.16,-14.84,8.19,17.08
4.263354778289795,1.61,-13.73,7.31,15.63
4.273141860961914,0.7,-12.59,5.91,13.92
4.283846855163574,-0.29,-11.46,4.38,12.27
4.293574810028076,-0.99,-10.56,3.05,11.03
4.3041229248046875,-1.61,-9.77,1.79,10.06
4.313385963439941,-2.19,-8.86,0.69,9.15
4.336165904998779,-2.62,-7.94,-0.09,8.36
4.338544845581055,-2.85,-7.01,-0.65,7.59
4.34240198135376,-3.14,-6.02,-0.88,6.84
4.35948371887207,-3.22,-5.14,-0.85,6.12
4.362058877944946,-3.2,-4.45,-0.88,5.55
4.374295711517334,-3.09,-3.87,-0.84,5.02
4.382259845733643,-3.04,-3.25,-0.84,4.52
4.39264988899231,-3.01,-2.74,-1.25,4.25
4.403125762939453,-2.71,-2.37,-1.69,3.97
4.413041830062866,-2.27,-2.16,-1.79,3.6
4.439931869506836,-1.81,-1.99,-1.68,3.17
4.4421539306640625,-1.46,-1.89,-1.69,2.92
4.444042682647705,-1.26,-1.96,-1.89,3.0
4.459107875823975,-1.31,-1.81,-1.73,2.82
4.461390972137451,-1.41,-1.54,-1.53,2.58
4.473865032196045,-1.49,-1.31,-1.26,2.35
4.481560707092285,-1.64,-1.15,-0.88,2.18
4.492044925689697,-1.6,-1.18,-0.56,2.06
4.50213885307312,-1.34,-1.29,-0.26,1.87
4.512399911880493,-1.08,-1.64,-0.02,1.96
4.541754722595215,-1.04,-1.94,-0.07,2.2
4.543972015380859,-1.26,-1.74,-0.24,2.16
4.545839786529541,-1.58,-1.08,-0.57,1.99
4.558334827423096,-1.5,-0.37,-0.79,1.73
4.56083083152771,-1.44,-0.05,-0.68,1.59
4.574154853820801,-1.36,-0.11,-0.53,1.46
4.580993890762329,-1.18,-0.4,-0.56,1.36
4.591552734375,-1.07,-0.71,-0.59,1.41
4.601842880249023,-1.28,-0.72,-0.64,1.6
4.611883878707886,-1.41,-0.57,-0.66,1.65
4.639742851257324,-1.29,-0.57,-0.65,1.55
4.641851902008057,-1.23,-0.5,-0.65,1.47
4.643614768981934,-1.13,-0.38,-0.79,1.43
4.659878730773926,-0.97,-0.38,-0.79,1.3
4.662378787994385,-0.91,-0.51,-0.55,1.17
4.67432975769043,-0.93,-0.55,-0.21,1.1
4.680433750152588,-0.88,-0.46,-0.06,0.99
4.690582752227783,-0.92,-0.43,-0.11,1.02
4.70142388343811,-0.9,-0.32,-0.08,0.95
4.710906028747559,-0.82,-0.21,0.16,0.86
4.7211408615112305,-0.75,-0.12,0.38,0.84
4.740614891052246,-0.68,0.01,0.41,0.79
4.742640972137451,-0.7,0.1,0.32,0.77
4.749623775482178,-0.82,0.21,0.05,0.84
4.759716987609863,-0.89,0.33,-0.3,0.99
4.769931793212891,-0.74,0.36,-0.54,0.98
4.779767990112305,-0.71,0.4,-0.71,1.08
4.790004730224609,-0.78,0.4,-0.74,1.14
4.800209999084473,-0.83,0.48,-0.56,1.11
4.8105149269104,-0.88,0.61,-0.42,1.15
4.820666790008545,-0.89,0.67,-0.37,1.17
4.840240955352783,-0.86,0.64,-0.09,1.07
4.842263698577881,-0.8,0.62,0.19,1.02
4.848855018615723,-0.77,0.6,0.23,1.0
4.85869288444519,-0.88,0.64,0.09,1.09
4.869217872619629,-0.78,0.64,0.13,1.01
4.8790507316589355,-0.82,0.54,0.41,1.06
4.8897998332977295,-0.99,0.43,0.53,1.2
4.899552822113037,-1.12,0.53,0.28,1.27
4.910002708435059,-1.09,0.49,0.03,1.19
4.919224739074707,-1.12,0.44,-0.06,1.2
4.938758850097656,-1.08,0.41,0.06,1.15
4.940769910812378,-1.05,0.43,0.23,1.15
4.9483418464660645,-0.71,0.36,0.37,0.87
4.95862889289856,-0.28,0.09,0.42,0.51
4.968037843704224,-0.12,-0.19,0.38,0.44
4.978482723236084,-0.14,-0.29,0.21,0.38
4.989255905151367,0.08,-0.36,0.08,0.37
4.9984517097473145,0.07,-0.3,0.12,0.33
5.008816719055176,-0.18,-0.23,0.41,0.5
5.018348693847656,-0.37,-0.18,0.8,0.89
5.037347793579102,-0.58,-0.08,0.83,1.01
5.039438724517822,-0.6,-0.16,0.61,0.87
5.047679901123047,-0.59,-0.35,0.34,0.76
5.058841705322266,-0.47,-0.42,0.21,0.66
5.067364692687988,-0.16,-0.47,0.24,0.55
5.077655792236328,-0.02,-0.67,0.49,0.83
5.0875749588012695,0.17,-0.73,0.69,1.01
5.098106861114502,0.25,-0.75,0.76,1.09
5.1077258586883545,0.08,-0.75,0.86,1.14
5.118183851242065,-0.05,-0.93,0.84,1.25
5.148266792297363,0.05,-1.27,0.79,1.49
5.150309801101685,0.3,-1.7,0.97,1.98
5.152341842651367,0.3,-1.89,1.46,2.4
5.15887188911438,0.17,-1.64,1.79,2.43
5.1667468547821045,0.16,-1.45,1.74,2.27
5.177063941955566,0.27,-1.51,1.41,2.08
5.186981678009033,0.4,-1.69,1.03,2.01
5.1970908641815186,0.41,-1.82,0.73,2.0
5.20717191696167,0.76,-2.08,0.69,2.31
5.2172558307647705,1.22,-2.56,0.92,2.98
5.247287750244141,1.46,-2.99,1.25,3.55
5.249388694763184,1.53,-3.28,1.69,3.99
5.251513957977295,1.27,-3.09,1.87,3.82
5.256960868835449,0.89,-2.65,1.57,3.2
5.265964031219482,0.61,-2.31,1.06,2.61
5.275709867477417,0.55,-2.17,0.52,2.29
5.286050796508789,0.62,-2.2,0.16,2.29
5.295980930328369,0.62,-2.33,0.14,2.41
5.306254863739014,0.36,-2.18,0.38,2.24
5.316412925720215,0.23,-1.89,0.67,2.01
5.346019744873047,0.04,-1.71,0.94,1.95
5.34829568862915,-0.42,-1.38,1.02,1.76
5.350162982940674,-1.09,-0.93,0.66,1.57
5.356863021850586,-1.59,-0.52,0.09,1.67
5.364958763122559,-1.63,-0.36,-0.46,1.73
5.3754377365112305,-1.58,-0.47,-0.67,1.77
5.385231018066406,-1.73,-0.57,-0.37,1.85
5.395687818527222,-1.91,-0.5,0.1,1.97
5.405571937561035,-2.0,-0.35,0.52,2.09
5.4154839515686035,-2.4,-0.05,0.84,2.54
5.441162824630737,-2.81,0.29,0.95,2.98
5.443485736846924,-2.96,0.4,1.02,3.15
5.445374965667725,-3.15,0.37,1.04,3.33
5.459357738494873,-3.38,0.47,0.8,3.5
5.464097023010254,-3.42,0.71,0.33,3.5
5.475390911102295,-3.14,0.86,-0.01,3.25
5.484499931335449,-2.85,0.75,-0.11,2.94
5.494827747344971,-2.55,0.54,-0.2,2.61
5.504979848861694,-2.49,0.44,-0.2,2.53
5.515186786651611,-2.8,0.59,-0.01,2.86
5.525044918060303,-3.03,0.82,0.16,3.14
5.546810865402222,-3.08,1.05,0.16,3.25
5.548804759979248,-3.28,1.34,-0.04,3.54
5.5536298751831055,-3.26,1.56,-0.25,3.62
5.563511848449707,-2.86,1.47,-0.22,3.22
5.574469804763794,-2.42,1.12,0.04,2.66
5.584014892578125,-2.13,0.8,0.42,2.31
5.5940399169921875,-1.83,0.55,0.68,2.02
5.604277849197388,-1.68,0.4,0.99,1.99
5.614264011383057,-1.71,0.36,1.38,2.22
5.624190807342529,-1.56,0.36,1.5,2.19
5.645725727081299,-1.13,0.29,1.25,1.7
5.647727966308594,-0.78,0.23,0.79,1.13
5.652763843536377,-0.77,0.26,0.32,0.87
5.663243770599365,-1.0,0.46,0.03,1.1
5.673220872879028,-0.98,0.59,-0.07,1.14
5.6829328536987305,-0.88,0.63,-0.07,1.08
5.69379186630249,-0.79,0.52,-0.04,0.94
5.703646898269653,-0.67,0.36,-0.09,0.76
5.713521957397461,-0.53,0.3,-0.14,0.62
5.723140716552734,-0.34,0.26,-0.18,0.46
5.746102809906006,-0.23,0.24,-0.17,0.37
5.748093843460083,-0.21,0.22,-0.2,0.36
5.752443790435791,-0.25,0.24,-0.28,0.44
5.762118816375732,-0.54,0.39,-0.32,0.73
5.772517681121826,-0.74,0.59,-0.36,1.01
5.782160758972168,-0.75,0.61,-0.44,1.06
5.792356014251709,-0.87,0.54,-0.51,1.14
5.802968978881836,-1.01,0.63,-0.55,1.31
5.812767028808594,-1.07,0.78,-0.48,1.4
5.822875022888184,-1.15,0.87,-0.35,1.48
5.841112852096558,-1.14,0.88,-0.26,1.46
5.843142986297607,-0.98,0.84,-0.19,1.3
5.8513548374176025,-0.85,0.75,-0.04,1.13
5.8614349365234375,-0.9,0.62,0.08,1.09
5.871833801269531,-0.99,0.59,-0.11,1.15
5.881601810455322,-1.08,0.7,-0.46,1.36
5.892222881317139,-1.1,0.78,-0.71,1.52
5.901845932006836,-0.99,0.71,-0.87,1.49
5.912055015563965,-0.88,0.65,-0.92,1.42
5.922276973724365,-0.74,0.53,-0.83,1.23
5.950703859329224,-0.68,0.37,-0.64,1.0
5.95279598236084,-0.71,0.26,-0.39,0.85
5.954927921295166,-0.79,0.19,-0.11,0.81
5.9606146812438965,-0.86,0.11,0.07,0.86
5.976987838745117,-0.94,0.06,0.19,0.96
5.980835914611816,-1.04,0.05,0.22,1.06
5.991148948669434,-1.06,0.05,0.18,1.07
6.001989841461182,-1.04,0.02,0.08,1.04
6.010734796524048,-1.09,-0.03,0.04,1.09
6.02081298828125,-1.22,-0.03,0.04,1.22
6.047262907028198,-1.41,0.06,0.03,1.41
6.049331903457642,-1.6,0.19,0.0,1.61
6.0513176918029785,-1.62,0.3,0.01,1.64
6.059932708740234,-1.54,0.38,-0.01,1.58
6.069906711578369,-1.44,0.44,-0.05,1.5
6.079797744750977,-1.22,0.48,-0.08,1.31
6.090019702911377,-1.05,0.48,-0.13,1.16
6.100352764129639,-1.01,0.44,-0.1,1.1
6.110409736633301,-0.94,0.43,-0.07,1.03
6.121298789978027,-0.74,0.39,-0.08,0.84
6.151996850967407,-0.49,0.32,-0.12,0.59
6.154230833053589,-0.29,0.19,-0.11,0.36
6.156230926513672,-0.09,0.12,-0.01,0.15
6.159592866897583,-0.03,0.18,0.03,0.18
6.169306755065918,-0.32,0.34,0.06,0.47
6.179107904434204,-0.8,0.59,0.04,0.99
6.18905782699585,-0.93,0.92,-0.11,1.31
6.199364900588989,-0.78,1.1,-0.26,1.37
6.209125995635986,-0.57,1.05,-0.36,1.24
6.220311880111694,-0.41,0.88,-0.39,1.04
6.247870922088623,-0.35,0.66,-0.32,0.81
6.2498838901519775,-0.34,0.54,-0.08,0.64
6.251990795135498,-0.28,0.45,0.2,0.56
6.258322715759277,-0.15,0.27,0.36,0.47
6.268521785736084,-0.09,0.07,0.42,0.43
6.278819799423218,0.09,0.05,0.46,0.47
6.288510799407959,0.1,0.16,0.47,0.5
6.298376798629761,-0.19,0.4,0.61,0.75
6.309087753295898,-0.39,0.59,0.69,0.98
6.319108009338379,-0.53,0.63,0.61,1.02
6.329080820083618,-0.74,0.59,0.57,1.1
6.349671840667725,-0.62,0.51,0.66,1.03
6.351941823959351,-0.35,0.45,0.7,0.9
6.358155727386475,-0.01,0.33,0.62,0.7
6.367793798446655,0.0,0.13,0.51,0.52
6.377570867538452,-0.31,0.02,0.43,0.53
6.3872058391571045,-0.54,0.24,0.42,0.72
6.398322820663452,-0.6,0.74,0.55,1.1
6.40855073928833,-0.66,0.93,0.83,1.41
6.417949676513672,-0.66,0.79,1.08,1.49
6.428877830505371,-0.44,0.59,1.02,1.25
6.450654029846191,-0.13,0.42,0.65,0.78
6.453042984008789,0.15,0.34,0.3,0.47
6.457465887069702,0.21,0.25,0.11,0.34
6.467066764831543,0.27,0.11,0.1,0.3
6.476862907409668,0.32,-0.04,0.31,0.44
6.48720383644104,0.05,-0.17,0.68,0.7
6.497637748718262,-0.68,-0.13,1.51,1.66
6.507405757904053,-0.43,0.12,0.99,1.08
6.518110752105713,0.42,0.21,0.11,0.48
6.527612686157227,0.32,0.03,0.16,0.35
6.549810886383057,0.5,-0.27,0.16,0.59
6.55190896987915,1.1,-0.6,0.38,1.3
6.556171894073486,1.54,-1.06,0.12,1.87
6.565993785858154,2.37,-1.13,0.54,2.68
6.576597690582275,3.05,-0.7,1.69,3.55
6.586622714996338,3.2,-0.89,1.7,3.73
6.596543788909912,2.63,-0.92,1.82,3.32
6.607036828994751,1.5,-0.54,1.99,2.54
6.616793870925903,1.17,-0.64,2.18,2.55
6.626824855804443,1.18,-1.01,2.09,2.6
6.648499011993408,1.31,-1.29,1.5,2.37
6.65054178237915,1.3,-1.68,0.28,2.14
6.65572190284729,0.42,-2.43,-0.89,2.62
6.665287971496582,-2.16,-3.68,-1.52,4.52
6.676042795181274,-5.97,-4.51,-2.36,7.84
6.6858298778533936,-9.7,-5.05,-5.03,12.03
6.695597887039185,-12.87,-7.99,-10.04,18.17
6.70632791519165,-16.01,-11.63,-16.7,25.89
6.715981960296631,-20.37,-13.13,-23.19,33.54
6.726611852645874,-26.69,-11.9,-30.55,42.27
6.755076885223389,-32.49,-9.31,-37.64,50.58
6.757176876068115,-36.48,-8.14,-42.38,56.5
6.759341716766357,-39.99,-8.46,-44.1,60.12
6.777085781097412,-44.06,-10.37,-41.08,61.12
6.779083728790283,-47.12,-13.9,-33.97,59.72
6.790588855743408,-49.19,-17.7,-25.36,58.1
6.794871807098389,-49.17,-22.1,-17.74,56.75
6.807775020599365,-48.14,-26.21,-11.34,55.97
6.815242767333984,-47.51,-29.96,-6.39,56.52
6.824826717376709,-48.29,-31.65,-3.26,57.82
6.84939980506897,-51.2,-32.3,-5.54,60.78
6.851707935333252,-57.33,-37.24,-11.79,69.37
6.854101896286011,-65.4,-51.0,-12.93,83.93
6.86431884765625,-71.21,-65.98,-5.37,97.22
6.874847888946533,-71.99,-70.64,2.31,100.88
6.884030818939209,-72.81,-72.7,2.49,102.92
6.89505672454834,-73.99,-80.4,-3.35,109.31
6.9048988819122314,-75.37,-86.71,-8.33,115.18
6.914777755737305,-76.39,-87.82,-5.58,116.52
6.924916744232178,-68.39,-88.36,2.19,111.75
6.950264930725098,-54.83,-88.3,9.91,104.4
6.952303886413574,-46.03,-85.83,15.07,98.55
6.954370975494385,-39.77,-74.12,15.74,85.57
6.963620901107788,-34.77,-63.53,12.5,73.49
6.974301815032959,-30.81,-56.75,8.3,65.1
6.983428955078125,-26.78,-52.09,5.42,58.82
6.9942848682403564,-22.69,-47.56,4.62,52.89
7.003667831420898,-18.78,-43.75,5.45,47.92
7.014072895050049,-14.43,-40.73,7.16,43.79
7.023614883422852,-10.32,-37.29,9.27,39.78
7.050430774688721,-6.8,-33.45,11.39,35.98
7.052590847015381,-4.01,-29.84,13.56,33.02
7.054682731628418,-2.23,-26.46,15.17,30.58
7.062955856323242,-1.7,-23.49,15.42,28.15
7.074471950531006,-2.28,-21.2,14.21,25.62
7.082246780395508,-3.81,-19.61,12.15,23.38
7.092666864395142,-5.22,-18.54,9.54,21.49
7.103046894073486,-6.63,-17.81,6.78,20.17
7.1129279136657715,-7.81,-17.47,4.39,19.63
7.1231369972229,-8.45,-17.41,2.58,19.52
7.1330389976501465,-8.78,-17.25,1.02,19.38
7.152869701385498,-8.84,-16.92,-0.43,19.09
7.155059814453125,-8.62,-16.52,-1.51,18.69
7.162194728851318,-8.11,-16.12,-2.12,18.16
7.171626806259155,-7.8,-15.39,-2.4,17.41
7.182187795639038,-7.66,-14.42,-2.44,16.5
7.19200587272644,-7.55,-13.28,-2.25,15.44
7.202268838882446,-7.19,-11.89,-1.76,14.0
7.212216854095459,-6.59,-10.37,-1.03,12.32
7.222573757171631,-5.79,-9.2,-0.07,10.87
7.232007026672363,-4.49,-8.47,1.13,9.65
7.253642797470093,-3.07,-8.43,2.29,9.25
7.2559168338775635,-2.26,-9.28,3.73,10.25
7.261037826538086,-1.84,-10.22,5.09,11.56
7.270803928375244,-1.62,-10.8,5.87,12.39
7.281236886978149,-1.8,-11.12,6.3,12.9
7.290933847427368,-2.39,-10.87,6.7,12.99
7.3012168407440186,-3.96,-10.51,7.17,13.32
7.31174898147583,-5.84,-10.68,7.56,14.32
7.32151985168457,-7.59,-10.77,7.74,15.28
7.33184289932251,-9.13,-10.67,7.21,15.78
7.35435676574707,-10.14,-10.12,5.58,15.37
7.35658597946167,-10.83,-9.25,3.58,14.68
7.360099792480469,-10.55,-8.76,2.1,13.87
7.377368927001953,-9.73,-8.67,1.64,13.13
7.3799238204956055,-8.9,-8.87,2.23,12.76
7.392158031463623,-8.29,-9.16,2.83,12.67
7.400136947631836,-8.51,-8.97,2.61,12.63
7.410778999328613,-9.62,-8.27,2.19,12.87
7.420925855636597,-10.35,-6.92,1.91,12.59
7.430965900421143,-10.27,-5.5,1.61,11.76
7.451409816741943,-10.1,-4.8,1.59,11.29
7.4536919593811035,-10.03,-4.17,1.59,10.97
7.459664821624756,-9.86,-3.92,1.8,10.76
7.469658851623535,-9.85,-4.09,2.06,10.86
7.479866981506348,-10.0,-3.71,1.91,10.83
7.489706993103027,-10.37,-3.12,1.43,10.92
7.500264883041382,-10.69,-2.58,0.94,11.03
7.510058879852295,-10.24,-2.01,0.44,10.44
7.520258903503418,-9.62,-2.01,0.3,9.83
7.530368804931641,-9.07,-1.97,0.16,9.28
7.562564849853516,-9.14,-1.65,-0.21,9.29
7.564806938171387,-9.5,-1.35,-0.59,9.61
7.566730976104736,-9.77,-1.2,-0.88,9.88
7.57705283164978,-9.75,-1.56,-0.99,9.92
7.578993797302246,-9.4,-1.94,-1.0,9.65
7.591490745544434,-9.23,-1.89,-1.2,9.49
7.598352909088135,-9.15,-1.38,-1.39,9.35
7.608633995056152,-9.19,-1.02,-1.45,9.35
7.618842840194702,-9.0,-0.95,-1.57,9.18
7.629153728485107,-8.59,-1.03,-1.65,8.8
7.656182765960693,-8.07,-1.52,-1.48,8.34
7.6584858894348145,-7.87,-1.8,-1.18,8.15
7.660308837890625,-8.13,-1.77,-0.98,8.37
7.6779680252075195,-7.95,-1.55,-1.06,8.16
7.679874897003174,-7.61,-1.14,-1.38,7.81
7.693093776702881,-7.34,-1.11,-1.91,7.66
7.697598934173584,-7.39,-1.59,-2.42,7.93
7.7094550132751465,-7.37,-1.47,-2.82,8.02
7.71806001663208,-7.59,-0.8,-3.53,8.4
7.7278478145599365,-8.01,-0.36,-4.41,9.15
7.755764007568359,-8.0,-0.01,-5.08,9.47
7.757896900177002,-7.81,0.41,-5.3,9.44
7.759740829467773,-7.85,0.83,-5.14,9.41
7.77783203125,-7.75,1.23,-4.77,9.18
7.779655933380127,-6.9,1.34,-4.67,8.43
7.792712688446045,-5.96,1.03,-4.61,7.6
7.796904802322388,-5.17,0.74,-4.38,6.81
7.808831691741943,-4.5,0.66,-4.21,6.19
7.8173747062683105,-3.96,0.52,-3.95,5.61
7.827607870101929,-3.55,0.33,-3.57,5.04
7.8568198680877686,-3.24,0.18,-3.1,4.48
7.859019756317139,-3.06,0.16,-2.71,4.09
7.86088490486145,-3.03,0.33,-2.36,3.85
7.8783979415893555,-3.08,0.51,-1.98,3.69
7.88035774230957,-3.16,0.56,-1.63,3.59
7.893517017364502,-3.1,0.53,-1.34,3.41
7.896636962890625,-2.89,0.42,-1.01,3.09
7.9095587730407715,-2.83,0.43,-0.64,2.93
7.916492938995361,-2.86,0.53,-0.29,2.92
7.926933765411377,-2.77,0.62,-0.06,2.83
7.937122821807861,-2.7,0.68,0.03,2.78
7.958889007568359,-2.78,0.7,0.15,2.87
7.960920810699463,-2.88,0.65,0.4,2.97
7.965615749359131,-2.82,0.54,0.62,2.93
7.977991819381714,-2.75,0.5,0.71,2.88
7.985436916351318,-2.89,0.56,0.75,3.03
7.995487689971924,-3.15,0.76,0.81,3.34
8.005920886993408,-3.19,1.01,0.72,3.42
8.016786813735962,-3.1,1.09,0.47,3.31
8.026046752929688,-2.86,1.09,0.1,3.06
8.03660774230957,-2.49,1.1,-0.42,2.75
8.058672904968262,-2.14,1.09,-1.0,2.6
8.06069278717041,-1.84,1.04,-1.61,2.65
8.06506085395813,-1.69,1.09,-2.11,2.91
8.077569007873535,-1.61,1.18,-2.38,3.1
8.084736824035645,-1.59,1.22,-2.39,3.11
8.095201969146729,-1.53,1.15,-2.23,2.93
8.10547399520874,-1.36,1.07,-2.03,2.66
8.115567684173584,-1.21,0.97,-1.83,2.39
8.125574827194214,-1.03,0.86,-1.61,2.09
8.13558578491211,-0.88,0.83,-1.41,1.85
8.158385753631592,-0.75,0.81,-1.21,1.63
8.160384893417358,-0.61,0.73,-1.04,1.4
8.164159774780273,-0.44,0.68,-0.85,1.17
8.178064823150635,-0.29,0.65,-0.71,1.0
8.183943748474121,-0.07,0.6,-0.62,0.86
8.194478988647461,0.15,0.52,-0.56,0.77
8.20414686203003,0.31,0.41,-0.45,0.68
8.214615821838379,0.41,0.37,-0.28,0.61
8.22445297241211,0.42,0.4,-0.09,0.58
8.234755992889404,0.34,0.44,0.12,0.56
8.254304885864258,0.18,0.43,0.37,0.59
8.256358861923218,0.06,0.4,0.62,0.74
8.263585805892944,0.0,0.38,0.84,0.92
8.273473739624023,-0.02,0.35,1.0,1.05
8.283724784851074,0.0,0.29,1.09,1.12
8.293511867523193,0.03,0.31,1.1,1.14
8.303800821304321,-0.03,0.38,1.07,1.13
8.31435489654541,-0.14,0.42,1.01,1.1
8.324201822280884,-0.3,0.5,0.9,1.07
8.334342002868652,-0.46,0.56,0.82,1.09
8.362973690032959,-0.62,0.5,0.74,1.08
8.365208864212036,-0.66,0.39,0.68,1.02
8.36709976196289,-0.61,0.33,0.57,0.89
8.378078937530518,-0.64,0.32,0.38,0.81
8.382844924926758,-0.69,0.32,0.23,0.79
8.392836809158325,-0.68,0.34,0.18,0.78
8.403039932250977,-0.85,0.55,0.05,1.01
8.412936687469482,-1.15,0.87,-0.22,1.45
8.422725677490234,-1.21,1.08,-0.37,1.66
8.433381795883179,-1.19,1.2,-0.47,1.75
8.461410999298096,-1.13,1.13,-0.57,1.69
8.463680744171143,-1.05,0.94,-0.59,1.52
8.46555781364441,-0.87,0.66,-0.51,1.2
8.476545810699463,-0.66,0.36,-0.4,0.85
8.481804847717285,-0.45,0.12,-0.21,0.51
8.49280595779419,-0.25,-0.01,-0.01,0.25
8.50218677520752,-0.01,-0.11,0.19,0.21
8.512753963470459,0.2,-0.07,0.25,0.32
8.52251672744751,0.11,0.05,0.3,0.32
8.532336711883545,-0.06,0.05,0.33,0.33
8.562154769897461,-0.05,0.13,0.33,0.35
8.564226865768433,-0.02,0.18,0.28,0.33
8.566014766693115,-0.04,0.14,0.34,0.36
8.578398704528809,0.04,0.02,0.41,0.41
8.581138849258423,0.36,-0.14,0.17,0.42
8.59311580657959,0.47,-0.32,0.23,0.61
8.60155200958252,0.59,-0.27,0.44,0.78
8.61139988899231,0.5,0.01,0.46,0.67
8.621819019317627,0.11,0.16,0.32,0.37
8.631824016571045,-0.21,0.29,0.01,0.35
8.659886837005615,0.05,0.23,0.66,0.7
8.662137985229492,-0.42,0.5,0.61,0.89
8.664017677307129,-0.29,0.64,0.48,0.85
8.678456783294678,0.11,0.45,0.52,0.69
8.680540800094604,0.1,0.26,0.47,0.54
8.691773891448975,0.42,-0.04,0.35,0.54
8.700865745544434,0.39,-0.15,0.25,0.48
8.710620880126953,0.17,-0.23,0.2,0.34
8.721545696258545,-0.08,-0.09,0.22,0.25
8.73088788986206,-0.44,0.38,0.17,0.6
8.741333961486816,-0.34,0.49,0.06,0.59
8.75997281074524,-0.09,0.46,-0.18,0.5
8.762091875076294,-0.27,0.45,-0.2,0.56
8.76974081993103,-0.5,0.44,0.1,0.67
8.779968738555908,-0.36,0.58,0.13,0.69
8.790045738220215,-0.25,0.54,0.1,0.6
8.800069808959961,0.14,0.22,0.14,0.29
8.810427904129028,0.5,-0.04,0.27,0.56
8.820400714874268,0.56,-0.45,0.94,1.18
8.830138683319092,0.12,-0.49,0.47,0.68
8.840966701507568,-0.08,-0.28,0.42,0.51
8.86021089553833,-0.88,0.54,0.34,1.08
8.86230993270874,-1.21,1.26,0.51,1.81
8.869010925292969,-0.67,1.33,0.21,1.5
8.879381895065308,-0.22,0.74,-0.18,0.79
8.889037847518921,0.13,0.2,-0.34,0.41
8.899526834487915,0.41,-0.08,-0.62,0.74
8.909175872802734,0.37,-0.14,-0.79,0.88
8.91994571685791,0.19,0.07,-0.67,0.69
8.92969799041748,-0.07,0.4,-0.35,0.53
8.939658880233765,-0.3,0.58,0.14,0.66
8.959167957305908,-0.48,0.47,0.45,0.8
8.961258888244629,-0.55,0.45,0.49,0.86
8.96827483177185,-0.56,0.75,0.29,0.97
8.978333950042725,-0.6,0.83,0.17,1.03
8.988173961639404,-0.53,0.55,0.58,0.95
8.998689889907837,-0.49,0.28,0.92,1.07
9.008979797363281,0.17,0.32,0.34,0.49
9.019053936004639,0.28,0.4,0.08,0.49
9.028924942016602,0.02,0.43,0.23,0.48
9.03958797454834,0.04,0.28,0.1,0.3
9.063049793243408,-0.01,0.33,0.17,0.37
9.065038681030273,0.08,0.27,0.36,0.45
9.067392826080322,0.01,0.08,0.5,0.5
9.07945990562439,0.05,0.07,0.63,0.63
9.086962699890137,0.21,0.0,0.63,0.66
9.09769582748413,0.39,-0.02,0.58,0.69
9.10744571685791,0.39,0.12,0.41,0.57
9.117365837097168,0.28,0.23,0.3,0.47
9.128459930419922,0.16,0.3,0.2,0.39
9.137850761413574,0.12,0.34,0.16,0.39
9.165666818618774,0.02,0.24,0.27,0.36
9.167617797851562,-0.38,0.52,0.72,0.96
9.169633865356445,-0.25,0.46,0.94,1.07
9.17927074432373,0.4,-0.33,0.53,0.74
9.186231851577759,0.12,0.02,0.48,0.49
9.196424007415771,0.23,0.19,0.51,0.59
9.206824779510498,0.18,0.09,0.38,0.43
9.217167854309082,0.16,0.27,0.15,0.34
9.226831912994385,0.18,0.27,0.06,0.33
9.237841844558716,0.05,0.16,0.71,0.72
9.260960817337036,-0.19,0.16,1.33,1.35
9.262976884841919,-0.1,0.09,1.27,1.27
9.26577091217041,-0.22,0.12,1.37,1.39
9.278275966644287,-0.41,0.19,1.25,1.32
9.285497903823853,-0.47,0.18,1.0,1.11
9.296020984649658,-0.44,0.27,0.56,0.76
9.306548833847046,-0.37,0.36,0.05,0.51
9.31624984741211,-0.19,0.36,-0.26,0.48
9.326165676116943,0.04,0.31,-0.23,0.38
9.33630895614624,0.02,0.4,-0.28,0.48
9.363933801651001,-0.24,0.56,-0.41,0.73
9.366065979003906,-0.36,0.53,-0.43,0.77
9.368122816085815,-0.21,0.49,-0.44,0.69
9.3761568069458,-0.16,0.5,-0.43,0.67
9.385153770446777,-0.12,0.56,-0.42,0.71
9.394925832748413,-0.1,0.59,-0.43,0.73
9.405401706695557,-0.02,0.57,-0.58,0.81
9.415137767791748,0.0,0.53,-0.79,0.95
9.42540979385376,-0.04,0.41,-0.83,0.92
9.435413837432861,-0.07,0.44,-0.69,0.82
9.4630708694458,-0.08,0.5,-0.48,0.69
9.465327739715576,-0.12,0.46,-0.31,0.56
9.467217922210693,-0.19,0.43,-0.23,0.52
9.476183891296387,-0.18,0.43,-0.2,0.5
9.484718799591064,-0.21,0.45,-0.17,0.52
9.494071960449219,-0.23,0.39,-0.08,0.45
9.504356861114502,-0.02,0.25,0.07,0.26
9.51443099975586,0.17,0.2,0.03,0.26
9.524724006652832,0.17,0.2,0.05,0.26
9.534794807434082,0.13,0.21,0.14,0.28
9.54554271697998,0.09,0.22,0.2,0.31
9.568964004516602,0.09,0.16,0.27,0.32
9.570918798446655,0.08,0.05,0.46,0.46
9.573540687561035,0.11,0.04,0.58,0.59
9.58360481262207,0.05,0.03,0.61,0.61
9.593387842178345,0.01,-0.04,0.76,0.76
9.603621006011963,0.12,-0.04,0.78,0.79
9.613919734954834,0.19,0.05,0.66,0.68
9.623775005340576,0.23,0.02,0.53,0.57
9.634126901626587,0.22,-0.06,0.47,0.52
9.644208908081055,0.21,-0.04,0.48,0.52
9.664804935455322,0.12,0.09,0.38,0.4
9.66680383682251,0.05,0.13,0.28,0.31
9.673147678375244,0.0,0.08,0.28,0.29
9.683222770690918,-0.01,0.09,0.31,0.32
9.693328857421875,-0.05,0.11,0.35,0.37
9.703466892242432,-0.12,0.2,0.41,0.47
9.714300870895386,-0.21,0.28,0.4,0.53
9.723812818527222,-0.28,0.39,0.34,0.58
9.733604907989502,-0.4,0.42,0.38,0.69
9.74440884590149,-0.46,0.46,0.52,0.83
9.766491889953613,-0.69,0.55,0.72,1.13
9.768503904342651,-1.09,0.65,1.02,1.62
9.772410869598389,-1.5,0.7,1.29,2.09
9.78227686882019,-1.89,0.67,1.44,2.46
9.793156862258911,-2.32,0.57,1.48,2.81
9.802757740020752,-2.45,0.35,1.41,2.84
9.812527894973755,-2.45,-0.03,1.03,2.65
9.822850704193115,-2.73,-0.4,0.92,2.9
9.83307695388794,-3.62,-1.04,1.09,3.92
9.843308925628662,-4.61,-2.15,1.4,5.27
9.865290880203247,-5.76,-3.1,0.98,6.61
9.867286682128906,-6.95,-4.54,-0.42,8.31
9.871550798416138,-8.04,-6.53,-1.89,10.52
9.882148742675781,-10.0,-8.81,-4.1,13.94
9.891737937927246,-12.54,-11.88,-7.44,18.8
9.902141809463501,-13.61,-14.65,-12.61,23.64
9.912595748901367,-14.34,-16.98,-19.89,29.82
9.922058820724487,-15.14,-18.18,-26.82,35.76
9.932329893112183,-16.36,-17.72,-31.69,39.82
9.942264795303345,-16.54,-17.32,-35.88,43.13
9.96773886680603,-16.88,-17.22,-37.52,44.6
9.969830989837646,-17.75,-18.05,-35.61,43.69
9.971951007843018,-18.61,-19.73,-32.97,42.69
9.98137092590332,-19.86,-21.73,-31.08,42.8
9.991147994995117,-22.07,-22.94,-30.19,43.87
10.001006841659546,-26.28,-22.84,-31.0,46.61
10.01196002960205,-32.29,-24.16,-33.43,52.38
10.02146291732788,-39.02,-28.2,-35.44,59.78
10.031412839889526,-47.96,-33.83,-34.74,68.2
10.041956901550293,-59.35,-44.38,-32.6,80.96
10.068585872650146,-68.33,-59.0,-25.88,93.91
10.070769786834717,-73.89,-71.86,-16.95,104.45
10.07294487953186,-74.83,-81.3,-7.35,110.73
10.080516815185547,-75.76,-85.63,-1.97,114.35
10.09275197982788,-76.75,-87.05,-0.76,116.05
10.100321769714355,-76.93,-88.18,2.66,117.05
10.110623836517334,-71.22,-88.58,9.18,114.03
10.120690822601318,-61.49,-88.37,15.79,108.8
10.131024837493896,-53.07,-86.27,17.47,102.78
10.141201972961426,-45.57,-76.19,15.25,90.07
10.169020891189575,-38.4,-66.62,11.21,77.7
10.171226024627686,-32.62,-60.43,8.41,69.18
10.173460960388184,-27.37,-55.59,7.96,62.47
10.179794788360596,-21.95,-50.91,9.76,56.29
10.192935943603516,-15.91,-46.05,13.14,50.46
10.199577808380127,-9.69,-40.91,17.28,45.45
10.209349870681763,-4.08,-36.01,21.16,41.96
10.219915866851807,0.17,-31.44,24.14,39.63
10.230227947235107,2.44,-27.7,25.55,37.76
10.239768028259277,2.17,-24.76,24.23,34.71
10.266918897628784,0.03,-23.08,20.34,30.76
10.269052982330322,-3.01,-22.01,14.98,26.79
10.271142959594727,-6.0,-21.39,9.8,24.28
10.2792649269104,-8.44,-21.25,5.84,23.59
10.28866195678711,-10.66,-21.16,2.77,23.85
10.298426866531372,-12.37,-20.88,0.45,24.27
10.30907678604126,-13.41,-20.58,-1.05,24.58
10.318965911865234,-13.65,-20.05,-1.93,24.33
10.328676700592041,-13.32,-19.55,-2.48,23.78
10.339635848999023,-12.32,-18.91,-2.91,22.75
10.349040985107422,-10.93,-18.21,-3.31,21.49
10.370481014251709,-9.28,-17.54,-3.3,20.11
10.37296199798584,-7.72,-16.82,-2.94,18.73
10.37791395187378,-6.32,-15.99,-2.27,17.34
10.387979984283447,-5.19,-14.68,-1.45,15.63
10.398094892501831,-4.17,-13.11,-0.19,13.75
10.408607006072998,-3.54,-11.91,1.0,12.46
10.417945861816406,-4.21,-11.37,1.14,12.17
10.428366899490356,-5.68,-10.64,0.17,12.06
10.43861198425293,-7.63,-9.39,-1.97,12.25
10.448710918426514,-8.8,-7.6,-4.53,12.47
10.470772743225098,-9.13,-5.29,-7.38,12.87
10.473044872283936,-8.54,-3.22,-8.93,12.76
10.477056980133057,-7.37,-1.59,-9.97,12.49
10.487430810928345,-6.78,-0.52,-10.1,12.17
10.497573852539062,-5.62,-0.73,-8.31,10.05
10.507046699523926,-4.65,-1.23,-6.25,7.88
10.51748275756836,-3.94,-1.3,-4.32,5.98
10.527819871902466,-3.22,-1.67,-2.29,4.28
10.5376877784729,-2.44,-1.75,-0.68,3.07
10.548129796981812,-2.13,-1.97,0.07,2.9
10.567535877227783,-2.2,-2.55,0.52,3.4
10.56992483139038,-3.0,-2.69,0.74,4.09
10.57676887512207,-3.99,-2.15,0.0,4.53
10.586604833602905,-4.35,-1.83,-0.94,4.81
10.596634864807129,-4.51,-1.82,-0.6,4.9
10.606536865234375,-4.38,-1.23,-0.4,4.56
10.617060899734497,-4.04,-0.94,-0.67,4.2
10.626698017120361,-4.29,-0.63,-1.06,4.46
10.636873722076416,-4.29,0.39,-2.1,4.79
10.647369861602783,-4.37,0.9,-2.8,5.26
10.67240571975708,-4.43,1.26,-3.08,5.54
10.674718856811523,-3.88,1.19,-3.18,5.15
10.676558017730713,-3.39,0.68,-2.58,4.31
10.696242809295654,-2.73,0.21,-1.8,3.27
10.698174953460693,-2.18,0.0,-1.16,2.46
10.710722923278809,-1.92,0.0,-0.84,2.09
10.715807914733887,-1.88,0.14,-0.8,2.04
10.727674961090088,-1.93,0.11,-0.32,1.95
10.736049890518188,-1.82,-0.03,0.44,1.87
10.746256828308105,-1.72,-0.05,0.88,1.93
10.7772216796875,-1.76,-0.11,1.16,2.11
10.77951979637146,-1.88,-0.24,1.42,2.36
10.781406879425049,-1.98,-0.05,1.36,2.4
10.79597282409668,-1.94,-0.01,1.02,2.19
10.797894954681396,-1.82,-0.06,0.84,2.0
10.810099840164185,-1.72,0.24,0.53,1.81
10.814575910568237,-1.73,0.26,0.02,1.74
10.826619863510132,-1.74,0.05,-0.21,1.75
10.835389852523804,-1.42,0.25,-0.56,1.54
10.8453848361969,-1.14,0.54,-0.94,1.57
10.873682022094727,-1.49,0.42,-1.06,1.87
10.875817775726318,-1.72,0.06,-0.71,1.86
10.877630710601807,-1.74,-0.39,-0.07,1.78
10.895920753479004,-1.58,-0.75,0.63,1.85
10.89781379699707,-1.36,-0.57,0.87,1.71
10.912286758422852,-1.76,-0.2,0.2,1.78
10.91464376449585,-1.95,0.11,-1.19,2.28
10.92624568939209,-1.56,0.15,-2.28,2.76
10.934186935424805,-1.17,-0.13,-2.74,2.98
10.944915771484375,-1.17,-0.43,-2.61,2.89
10.971101760864258,-1.46,-0.41,-2.05,2.54
10.973410844802856,-1.88,-0.27,-1.18,2.23
10.975327968597412,-2.46,-0.04,-0.35,2.48
10.983398914337158,-2.84,0.3,0.25,2.86
10.993568897247314,-3.3,0.54,0.56,3.39
11.003854751586914,-3.69,0.93,0.19,3.81
11.013836860656738,-2.9,0.87,-0.88,3.15
11.023905754089355,-1.81,0.38,-1.87,2.63
11.033909797668457,-0.95,-0.06,-2.38,2.56
11.044193744659424,-0.46,-0.42,-2.64,2.71
11.073229789733887,-0.78,-0.66,-2.3,2.51
11.075356006622314,-1.47,-0.58,-1.74,2.35
11.07739782333374,-2.3,-0.13,-1.51,2.75
11.09591293334961,-2.93,0.3,-1.5,3.3
11.097839832305908,-3.33,0.57,-1.58,3.72
11.112428903579712,-3.29,0.8,-1.68,3.77
11.114627838134766,-2.99,0.82,-1.74,3.55
11.127003908157349,-2.75,0.58,-1.72,3.29
11.132643699645996,-2.62,0.37,-1.51,3.04
11.14765191078186,-2.56,0.33,-1.24,2.86
11.15295696258545,-2.62,0.27,-1.0,2.81
11.179329872131348,-2.66,0.17,-0.93,2.82
11.181322813034058,-2.81,0.18,-0.93,2.96
11.183351993560791,-3.04,0.33,-0.91,3.19
11.195662021636963,-3.12,0.54,-0.88,3.28
11.201681852340698,-3.06,0.62,-0.88,3.24
11.211931705474854,-2.9,0.58,-0.81,3.06
11.222283840179443,-2.79,0.47,-0.71,2.91
11.231969833374023,-2.87,0.52,-0.72,3.0
11.242755889892578,-3.03,0.81,-0.77,3.22
11.25217080116272,-3.12,1.12,-0.85,3.42
11.273770809173584,-3.05,1.2,-0.92,3.4
11.276098728179932,-2.8,1.08,-1.03,3.17
11.28157091140747,-2.5,1.01,-1.06,2.89
11.29605484008789,-2.19,0.96,-1.02,2.59
11.300987720489502,-1.82,0.85,-1.11,2.29
11.311578750610352,-1.52,0.75,-1.18,2.06
11.321625709533691,-1.17,0.73,-1.06,1.73
11.331907749176025,-0.88,0.77,-0.89,1.46
11.342164993286133,-0.67,0.8,-0.71,1.26
11.351570844650269,-0.54,0.8,-0.6,1.13
11.37550687789917,-0.47,0.84,-0.51,1.08
11.3778657913208,-0.35,0.87,-0.38,1.01
11.380616903305054,-0.17,0.8,-0.32,0.87
11.396325826644897,0.03,0.65,-0.25,0.69
11.400254726409912,0.19,0.55,-0.17,0.6
11.412656784057617,0.34,0.53,-0.1,0.63
11.420868873596191,0.45,0.56,-0.07,0.72
11.430820941925049,0.44,0.54,-0.1,0.7
11.441295862197876,0.35,0.51,-0.13,0.63
11.451042890548706,0.24,0.57,-0.21,0.65
11.47411584854126,0.0,0.73,-0.34,0.8
11.476408004760742,-0.22,0.87,-0.43,0.99
11.479755878448486,-0.39,0.93,-0.5,1.12
11.49596881866455,-0.48,0.98,-0.56,1.22
11.499547958374023,-0.59,1.02,-0.61,1.32
11.51055097579956,-0.74,1.07,-0.61,1.43
11.519905805587769,-0.7,1.1,-0.59,1.43
11.529761791229248,-0.59,1.05,-0.57,1.33
11.540918827056885,-0.5,0.95,-0.51,1.18
11.550180912017822,-0.42,0.86,-0.4,1.03
11.576284885406494,-0.34,0.79,-0.29,0.9
11.578547954559326,-0.35,0.69,-0.18,0.79
11.580432891845703,-0.47,0.66,-0.08,0.81
11.596021890640259,-0.48,0.69,-0.02,0.84
11.599004745483398,-0.43,0.63,-0.02,0.76
11.611336708068848,-0.4,0.54,-0.04,0.67
11.619201898574829,-0.34,0.46,-0.02,0.57
11.628930807113647,-0.29,0.41,-0.02,0.5
11.640157699584961,-0.38,0.38,-0.03,0.53
11.649559020996094,-0.58,0.39,-0.03,0.69
11.682475805282593,-0.88,0.52,-0.04,1.02
11.68475079536438,-1.07,0.71,-0.05,1.28
11.686628818511963,-1.14,0.78,-0.09,1.38
11.694478988647461,-1.2,0.77,-0.14,1.43
11.698326826095581,-1.2,0.75,-0.19,1.42
11.711397886276245,-1.14,0.74,-0.25,1.38
11.718092918395996,-1.1,0.73,-0.32,1.35
11.728157997131348,-1.05,0.7,-0.35,1.3
11.738439798355103,-0.95,0.69,-0.32,1.21
11.748719692230225,-0.85,0.68,-0.28,1.12
11.777777910232544,-0.78,0.73,-0.26,1.09
11.779974937438965,-0.72,0.76,-0.26,1.07
11.781684875488281,-0.72,0.78,-0.27,1.09
11.796260833740234,-0.75,0.77,-0.24,1.1
11.798118829727173,-0.81,0.86,-0.24,1.2
11.814169883728027,-0.74,0.96,-0.24,1.23
11.817610740661621,-0.65,0.93,-0.24,1.15
11.827715873718262,-0.64,0.9,-0.26,1.13
11.838175773620605,-0.64,0.93,-0.24,1.15
11.848001956939697,-0.68,0.99,-0.15,1.21
11.87906289100647,-0.72,1.03,-0.01,1.25
11.881304740905762,-0.73,0.87,0.11,1.14
11.883181810379028,-0.71,0.67,0.26,1.01
11.89472770690918,-0.57,0.55,0.35,0.86
11.896649837493896,-0.29,0.5,0.38,0.69
11.911545753479004,-0.09,0.62,0.47,0.78
11.916498899459839,-0.06,0.72,0.53,0.89
11.92768383026123,-0.39,0.75,0.45,0.95
11.937001705169678,-0.63,0.69,0.44,1.03
11.947131872177124,-0.51,0.86,0.37,1.06
11.957184791564941,-0.3,1.1,0.17,1.15
11.978502750396729,-0.32,0.94,0.17,1.0
11.980491876602173,-0.34,0.75,0.46,0.94
11.985914707183838,-0.5,0.67,0.84,1.18
11.99604082107544,-0.77,0.62,1.25,1.59
12.005904912948608,-1.01,0.61,1.65,2.02
12.016711711883545,-1.09,0.31,1.87,2.18
12.0259108543396,-1.45,-0.16,2.07,2.53
12.036653995513916,-1.81,-0.84,2.15,2.93
12.046434879302979,-1.46,-1.62,1.68,2.75
12.056987762451172,-1.35,-2.47,0.95,2.97
12.079176902770996,-2.16,-3.37,0.77,4.07
12.081271886825562,-3.9,-4.48,-0.26,5.94
12.085192680358887,-6.85,-6.35,-3.01,9.81
12.09639596939087,-9.75,-9.58,-8.33,16.0
12.105808734893799,-11.37,-12.54,-15.1,22.68
12.116079807281494,-13.64,-14.23,-14.01,24.18
12.12735390663147,-16.48,-17.04,-16.36,28.8
12.136078834533691,-17.65,-19.39,-20.73,33.42
12.14554500579834,-17.94,-20.34,-31.63,41.66
12.156075954437256,-20.04,-18.95,-41.36,49.71
12.176636695861816,-24.61,-12.14,-44.87,52.59
12.178754806518555,-29.02,-8.39,-42.0,51.73
12.184860706329346,-28.76,-11.07,-36.89,48.06
12.195841789245605,-27.6,-14.07,-33.15,45.37
12.20459794998169,-29.56,-17.2,-32.35,47.07
12.215161800384521,-31.86,-22.51,-29.9,49.15
12.225037813186646,-35.44,-28.81,-25.01,52.07
12.235785961151123,-42.35,-35.01,-20.68,58.71
12.245306015014648,-50.72,-42.26,-19.09,68.72
12.255870819091797,-58.81,-49.59,-18.89,79.21
12.274956703186035,-69.64,-57.59,-18.25,92.19
12.277063846588135,-73.05,-65.8,-16.44,99.68
12.284533023834229,-74.02,-79.15,-15.48,109.46
12.296154975891113,-75.51,-86.58,-10.86,115.39
12.303912878036499,-76.92,-87.59,-6.68,116.76
12.313798904418945,-78.29,-88.53,-4.31,118.26
12.324450016021729,-79.29,-88.59,0.28,118.89
12.334620952606201,-71.61,-87.91,7.76,113.65
12.34381890296936,-56.81,-86.83,10.58,104.3
12.35439682006836,-46.31,-84.23,10.66,96.71
12.381933689117432,-39.27,-74.2,8.72,84.4
12.384037971496582,-33.72,-66.76,4.31,74.91
12.386154890060425,-28.13,-63.44,0.46,69.39
12.39634084701538,-22.04,-60.28,0.73,64.18
12.40332579612732,-14.6,-57.53,4.81,59.54
12.413728713989258,-4.54,-53.2,11.88,54.69
12.423499822616577,5.42,-48.6,21.07,53.24
12.433475971221924,12.25,-43.51,29.48,53.96
12.443999767303467,13.07,-38.43,33.29,52.49
12.453893899917603,7.97,-34.8,30.6,47.02
12.48009181022644,0.32,-31.57,21.6,38.25
12.482465744018555,-5.86,-29.65,12.48,32.69
12.48439073562622,-10.3,-29.18,7.65,31.87
12.495275974273682,-13.45,-29.32,4.78,32.61
12.503198862075806,-15.57,-30.17,2.84,34.06
12.512325763702393,-17.29,-31.75,1.09,36.16
12.52274489402771,-18.78,-33.79,-1.02,38.67
12.532667875289917,-19.3,-34.88,-2.75,39.95
12.543391704559326,-19.46,-34.81,-3.94,40.07
12.553359031677246,-20.03,-33.93,-4.72,39.68
12.57640790939331,-20.8,-32.27,-5.02,38.71
12.578696727752686,-21.47,-29.73,-4.89,36.99
12.581490993499756,-20.19,-26.2,-4.83,33.42
12.597011804580688,-16.98,-22.87,-4.66,28.86
12.601459980010986,-13.71,-20.64,-4.09,25.11
12.611732006072998,-11.99,-19.41,-2.2,22.92
12.621866703033447,-11.76,-18.67,0.28,22.06
12.631753921508789,-13.0,-16.71,1.12,21.2
12.6423659324646,-13.52,-14.79,1.04,20.06
12.652050971984863,-12.49,-13.97,1.24,18.78
12.679197788238525,-11.23,-13.61,2.14,17.77
12.681466817855835,-10.83,-13.65,3.29,17.73
12.683399677276611,-12.23,-13.45,4.27,18.67
12.695956707000732,-16.21,-10.71,4.28,19.89
12.70071268081665,-18.6,-6.88,3.81,20.19
12.711921691894531,-18.03,-5.57,3.18,19.13
12.721622943878174,-16.41,-6.22,3.36,17.86
12.731730937957764,-15.43,-7.28,4.05,17.53
12.741593837738037,-15.34,-7.46,4.73,17.7
12.751360893249512,-15.61,-7.09,4.77,17.79
12.761226892471313,-16.62,-5.34,3.32,17.76
12.780771732330322,-18.28,-2.6,1.13,18.49
12.782926797866821,-18.97,-0.97,-0.76,19.0
12.791006803512573,-18.19,-0.81,-2.85,18.42
12.800814867019653,-17.57,-1.45,-3.54,17.98
12.81114387512207,-17.39,-2.17,-2.79,17.74
12.82054591178894,-17.13,-1.88,-2.51,17.41
12.830846786499023,-18.09,0.02,-3.06,18.34
12.841063022613525,-17.53,2.08,-4.56,18.23
12.85088300704956,-15.59,3.1,-6.47,17.16
12.860122680664062,-13.24,3.19,-8.1,15.84
12.880432844161987,-11.7,2.64,-8.58,14.74
12.882486820220947,-10.75,2.44,-7.87,13.54
12.890280723571777,-9.9,2.48,-6.32,12.0
12.899559020996094,-9.28,2.13,-4.96,10.73
12.909433841705322,-8.79,1.66,-4.09,9.83
12.919282913208008,-8.54,2.21,-3.51,9.49
12.929565906524658,-8.26,2.97,-3.33,9.38
12.939778804779053,-7.95,3.12,-3.14,9.09
12.949979782104492,-7.29,3.04,-2.88,8.4
12.960201740264893,-6.07,2.74,-2.67,7.17
12.982105731964111,-4.9,2.28,-2.44,5.92
12.984161853790283,-4.23,1.85,-2.18,5.1
12.988825798034668,-3.86,1.65,-1.81,4.57
12.998701810836792,-3.51,1.46,-1.25,4.0
13.008695840835571,-3.19,1.05,-0.82,3.45
13.018334865570068,-3.15,0.65,-1.23,3.44
13.028907775878906,-2.54,0.71,-1.24,2.91
13.039594888687134,-2.01,1.18,-0.94,2.51
13.049060821533203,-2.1,1.42,-1.0,2.72
13.059128761291504,-2.42,1.33,-1.41,3.1
13.080919742584229,-2.57,1.33,-1.78,3.39
13.082859992980957,-2.38,1.38,-1.79,3.28
13.088106870651245,-2.08,1.48,-1.58,3.0
13.098018884658813,-1.94,1.47,-1.39,2.8
13.108051776885986,-2.2,1.43,-1.22,2.89
13.118139743804932,-2.79,1.38,-0.99,3.26
13.128619909286499,-3.0,1.15,-0.67,3.28
13.138333797454834,-2.74,0.96,-0.54,2.95
13.148378849029541,-2.33,0.94,-0.66,2.59
13.158150911331177,-1.98,0.77,-0.97,2.33
13.18592381477356,-1.77,0.58,-1.36,2.3
13.188012838363647,-1.73,0.57,-1.57,2.4
13.19004201889038,-1.73,0.71,-1.48,2.38
13.197060823440552,-1.72,0.74,-1.22,2.23
13.207093715667725,-1.67,0.7,-0.9,2.02
13.216809749603271,-1.51,0.71,-0.62,1.78
13.227212905883789,-1.41,0.78,-0.31,1.64
13.2377188205719,-1.34,0.95,-0.24,1.66
13.247636795043945,-1.22,1.08,-0.14,1.63
13.257911682128906,-1.26,1.01,0.03,1.61
13.288627862930298,-1.33,1.09,0.46,1.78
13.29071569442749,-1.36,0.43,0.34,1.46
13.292757987976074,-1.22,0.0,-0.18,1.23
13.296182870864868,-0.61,0.37,-0.02,0.71
13.306153774261475,0.38,0.25,0.52,0.69
13.316653728485107,0.76,0.37,0.65,1.06
13.326436996459961,0.21,-0.09,-0.36,0.42
13.336529731750488,0.01,0.68,0.34,0.76
13.346534729003906,0.3,1.03,0.85,1.36
13.3573317527771,0.43,0.38,0.65,0.86
13.38586688041687,0.38,-0.14,0.6,0.72
13.387876987457275,0.54,-0.16,0.99,1.13
13.390038967132568,0.68,0.09,1.07,1.27
13.395419836044312,0.29,0.52,1.15,1.29
13.405958890914917,-0.09,0.79,1.27,1.49
13.415551900863647,-0.28,0.94,1.16,1.51
13.425809860229492,-0.25,0.94,1.02,1.4
13.435640811920166,0.03,0.79,0.64,1.01
13.446866989135742,0.32,0.7,0.16,0.78
13.456031799316406,0.53,0.65,-0.27,0.88
13.483004808425903,0.67,0.54,-0.48,0.98
13.48509168624878,0.55,0.43,-0.25,0.74
13.487167835235596,0.29,0.32,0.19,0.47
13.495413780212402,-0.03,0.12,0.51,0.52
13.505025863647461,-0.07,-0.08,0.88,0.88
13.514834880828857,0.22,-0.26,1.0,1.05
13.524672985076904,0.52,-0.39,0.88,1.09
13.535125732421875,0.65,-0.4,0.73,1.05
13.545509815216064,0.69,-0.39,0.65,1.02
13.555131912231445,0.76,-0.31,0.7,1.07
13.565680980682373,0.63,-0.13,0.54,0.83
13.588704824447632,0.35,0.17,0.3,0.49
13.590946912765503,0.35,0.4,0.04,0.53
13.594275951385498,0.43,0.57,-0.04,0.71
13.604297876358032,0.29,0.67,-0.19,0.75
13.613943815231323,-0.16,0.83,-0.23,0.87
13.62437391281128,-0.44,1.01,-0.13,1.1
13.634653806686401,-0.46,0.96,-0.12,1.07
13.644444942474365,-0.57,0.94,-0.31,1.14
13.655029773712158,-0.73,1.02,-0.37,1.3
13.66488790512085,-0.63,1.04,-0.28,1.24
13.689199924468994,-0.37,0.87,-0.06,0.94
13.691592693328857,-0.03,0.66,0.2,0.69
13.693357944488525,0.3,0.61,0.39,0.78
13.703579902648926,0.52,0.52,0.29,0.79
13.713189840316772,0.53,0.44,0.16,0.7
13.723602771759033,0.42,0.36,0.05,0.55
13.733465909957886,0.23,0.37,-0.04,0.43
13.744119882583618,0.06,0.5,-0.12,0.51
13.75347089767456,-0.03,0.6,-0.36,0.7
13.763595819473267,-0.12,0.73,-0.56,0.92
13.784218788146973,-0.21,0.92,-0.58,1.1
13.786229848861694,-0.27,0.94,-0.61,1.15
13.792572975158691,-0.29,0.83,-0.64,1.08
13.802680969238281,-0.31,0.83,-0.68,1.11
13.812821865081787,-0.3,0.84,-0.44,0.99
13.822852849960327,-0.37,0.45,-0.08,0.58
13.833277702331543,-0.49,0.16,0.06,0.51
13.843295812606812,-0.59,0.3,0.2,0.69
13.853067874908447,-0.49,0.67,0.6,1.02
13.863762855529785,-0.12,0.9,1.28,1.56
13.887860774993896,0.21,1.08,1.99,2.27
13.890008926391602,0.1,1.05,2.34,2.56
13.892117023468018,-0.26,0.68,2.05,2.17
13.902373790740967,-0.28,0.35,1.28,1.35
13.911821842193604,0.05,0.18,0.59,0.61
13.922139883041382,0.42,0.28,0.27,0.57
13.93186092376709,0.45,0.5,-0.59,0.89
13.942671775817871,0.27,0.61,-1.12,1.3
13.952564716339111,0.13,0.73,-1.07,1.3
13.962701797485352,-0.04,0.91,-1.0,1.35
13.99390697479248,-0.16,1.02,-0.74,1.27
13.995914936065674,-0.21,1.07,-0.35,1.14
13.997989892959595,-0.29,0.94,0.0,0.98
14.000975847244263,-0.25,0.53,0.38,0.69
14.010923862457275,0.0,0.17,0.82,0.83
14.021225929260254,0.26,0.0,1.23,1.25
14.03109884262085,0.41,0.02,1.31,1.37
14.041607856750488,0.45,0.08,1.13,1.21
14.051638841629028,0.44,0.24,0.78,0.92
14.061625003814697,0.25,0.57,0.44,0.76
14.089219808578491,0.25,0.56,0.04,0.61
14.091807842254639,0.45,0.45,-0.22,0.67
14.09443187713623,0.45,0.55,-0.36,0.79
14.100376844406128,0.26,0.58,-0.51,0.81
14.110366821289062,0.21,0.62,-0.31,0.72
14.120482921600342,0.05,0.74,-0.1,0.74
14.13016390800476,-0.08,0.72,0.27,0.77
14.14059591293335,-0.15,0.65,0.62,0.91
14.150284767150879,-0.19,0.49,0.74,0.9
14.160992860794067,-0.13,0.37,0.72,0.81
14.190438747406006,-0.03,0.41,0.67,0.78
14.1925208568573,-0.06,0.61,0.54,0.81
14.194369792938232,-0.17,0.78,0.31,0.85
14.199615955352783,0.0,0.61,0.23,0.65
14.209388732910156,0.05,0.5,0.33,0.6
14.219748973846436,-0.02,0.51,0.52,0.72
14.229826927185059,-0.14,0.45,0.6,0.76
14.23972487449646,0.02,0.33,0.59,0.67
14.250247955322266,0.23,0.26,0.49,0.6
14.260310888290405,0.43,0.13,0.15,0.47
14.29013180732727,0.62,0.18,-0.21,0.67
14.29216980934143,0.71,0.31,-0.29,0.82
14.294005870819092,0.54,0.39,-0.17,0.68
14.298799991607666,0.21,0.44,0.15,0.51
14.308837890625,-0.07,0.49,0.48,0.68
14.31888198852539,-0.16,0.46,0.77,0.91
14.329064846038818,-0.07,0.25,0.81,0.85
14.339164733886719,0.15,0.15,0.63,0.66
14.348829746246338,0.35,0.16,0.45,0.59
14.360029697418213,0.44,0.2,0.28,0.55
14.369473934173584,0.33,0.35,0.22,0.52
14.392127990722656,0.04,0.5,0.32,0.59
14.394359827041626,-0.15,0.62,0.46,0.78
14.39804983139038,-0.21,0.66,0.51,0.86
14.414108753204346,-0.14,0.54,0.51,0.75
14.41789984703064,0.0,0.43,0.36,0.56
14.428721904754639,0.16,0.4,0.08,0.43
14.438392877578735,0.23,0.42,-0.1,0.48
14.448065757751465,0.22,0.41,-0.15,0.48
14.458899974822998,0.21,0.47,-0.17,0.54
14.468395709991455,0.32,0.61,-0.17,0.7
14.494009017944336,0.22,0.6,-0.08,0.64
14.496272802352905,0.25,0.38,-0.11,0.46
14.498088836669922,0.55,0.35,-0.32,0.72
14.507380962371826,0.51,0.32,-0.36,0.7
14.517520904541016,0.32,0.26,-0.16,0.44
14.527655839920044,0.23,0.22,0.21,0.38
14.537790775299072,0.04,0.44,0.75,0.87
14.547644853591919,-0.05,0.5,1.35,1.44
14.558318853378296,-0.24,0.45,1.59,1.66
14.568179845809937,-0.48,0.59,1.44,1.62
14.590828895568848,-0.45,0.75,1.08,1.38
14.593087911605835,-0.28,0.74,0.63,1.01
14.596606731414795,-0.12,0.72,0.29,0.78
14.614577770233154,-0.1,0.68,0.1,0.69
14.616473913192749,-0.29,0.75,0.27,0.84
14.629352807998657,-0.57,0.89,0.58,1.2
14.637211799621582,-0.66,0.82,0.66,1.24
14.646710872650146,-0.56,0.65,0.46,0.97
14.657411813735962,-0.23,0.53,0.14,0.59
14.66702389717102,0.23,0.48,-0.11,0.54
14.690079689025879,0.54,0.52,-0.14,0.76
14.692348957061768,0.64,0.46,-0.13,0.79
14.695895910263062,0.5,0.44,-0.17,0.68
14.705537796020508,0.23,0.44,-0.15,0.51
14.71622896194458,-0.01,0.41,0.01,0.41
14.726155757904053,-0.07,0.27,0.22,0.35
14.73632001876831,0.01,0.25,0.37,0.44
14.746496677398682,0.08,0.3,0.44,0.53
14.756327867507935,0.16,0.32,0.41,0.54
14.76651382446289,0.3,0.22,0.22,0.43
14.795833826065063,0.4,0.15,0.04,0.42
14.79807996749878,0.45,0.17,0.03,0.48
14.799947738647461,0.49,0.19,0.24,0.57
14.814106941223145,0.39,0.18,0.52,0.67
14.815987825393677,0.22,0.08,0.84,0.87
14.828919887542725,0.1,0.1,1.07,1.07
14.835409879684448,0.03,0.11,1.17,1.17
14.845769882202148,0.09,0.17,1.11,1.12
14.855625867843628,0.15,0.28,0.95,1.0
14.865696907043457,0.18,0.42,0.67,0.81
14.89532995223999,0.31,0.38,0.38,0.62
14.89766788482666,0.49,0.29,0.19,0.6
14.899547815322876,0.59,0.22,0.27,0.68
14.91536283493042,0.6,0.15,0.63,0.88
14.917151927947998,0.6,0.07,1.27,1.4
14.927003860473633,0.58,-0.08,2.03,2.11
14.934279918670654,0.38,-0.26,2.43,2.47
14.945302963256836,0.01,-0.27,2.37,2.38
14.954741954803467,-0.32,-0.15,2.01,2.04
14.964707851409912,-0.77,0.06,1.46,1.65
14.995121002197266,-0.91,0.29,1.06,1.42
14.99735403060913,-0.81,0.58,0.94,1.36
14.999233722686768,-0.75,0.63,1.04,1.42
15.014528751373291,-0.91,0.35,1.13,1.49
15.016417026519775,-1.59,-0.07,1.15,1.96
15.030409812927246,-2.47,-0.64,1.29,2.85
15.033377885818481,-3.15,-1.03,1.48,3.62
15.045819759368896,-3.76,-1.95,2.0,4.68
15.054633855819702,-4.21,-3.32,2.75,6.02
15.064339876174927,-4.81,-4.24,3.14,7.13
15.093289852142334,-7.92,-5.35,2.42,9.85
15.095593929290771,-13.17,-6.55,0.07,14.7
15.097524881362915,-17.27,-8.16,-3.38,19.39
15.114824771881104,-19.81,-10.1,-7.17,23.36
15.116843700408936,-22.58,-10.23,-11.73,27.42
15.12889575958252,-25.38,-10.38,-17.87,32.72
15.133273839950562,-27.1,-10.28,-23.84,37.52
15.145159721374512,-28.82,-9.46,-28.34,41.51
15.153052806854248,-31.09,-9.93,-30.36,44.57
15.163425922393799,-34.14,-10.99,-29.01,46.12
15.173642873764038,-37.79,-11.31,-26.43,47.48
15.195817947387695,-43.01,-10.97,-24.31,50.6
15.197940826416016,-46.33,-10.72,-22.82,52.74
15.202914714813232,-48.72,-12.13,-21.02,54.42
15.214468955993652,-50.02,-14.32,-17.32,54.83
15.22200870513916,-50.24,-16.95,-12.53,54.48
15.232854843139648,-52.31,-22.56,-7.76,57.49
15.24348497390747,-57.64,-35.1,-2.99,67.55
15.253002882003784,-61.81,-51.13,4.98,80.37
15.263041973114014,-62.18,-67.59,18.98,93.78
15.27267074584961,-54.79,-69.71,30.94,93.9
15.292082786560059,-53.52,-65.64,27.37,89.0
15.294182777404785,-58.39,-69.57,16.6,92.33
15.302273750305176,-60.91,-79.14,12.0,100.58
15.313621997833252,-56.01,-85.1,12.88,102.68
15.322053909301758,-49.41,-85.37,13.11,99.5
15.331561803817749,-42.5,-80.52,12.72,91.93
15.342159748077393,-36.66,-73.72,10.62,83.01
15.352370738983154,-32.15,-67.53,7.77,75.19
15.361989974975586,-27.91,-61.63,4.62,67.81
15.372160911560059,-24.47,-58.3,1.72,63.25
15.39078688621521,-19.13,-53.58,-0.02,56.89
15.393274784088135,-14.68,-47.34,-0.28,49.56
15.401175022125244,-12.64,-43.5,1.43,45.32
15.411665916442871,-11.5,-40.47,4.84,42.34
15.420905828475952,-9.75,-37.29,8.4,39.44
15.431243896484375,-6.4,-34.59,10.78,36.79
15.441207885742188,-2.31,-32.39,13.2,35.05
15.45156192779541,1.57,-30.14,15.53,33.94
15.461927890777588,3.95,-28.34,16.61,33.08
15.47142481803894,3.9,-27.83,15.72,32.19
15.49239182472229,1.43,-27.34,12.65,30.15
15.49481987953186,-2.08,-26.07,8.54,27.51
15.500317811965942,-5.5,-24.83,4.99,25.91
15.51508092880249,-8.4,-24.3,2.56,25.83
15.519850730895996,-10.51,-23.94,1.11,26.16
15.53033971786499,-11.97,-23.17,0.25,26.08
15.539986848831177,-12.86,-22.62,-0.32,26.02
15.55095100402832,-13.24,-22.38,-0.64,26.01
15.560797691345215,-13.08,-22.15,-0.76,25.73
15.571094989776611,-12.7,-21.97,-0.69,25.38
15.602054834365845,-12.0,-21.32,-0.28,24.46
15.604316711425781,-11.15,-20.22,0.37,23.09
15.606200695037842,-10.59,-19.58,0.79,22.27
15.611960887908936,-10.25,-19.34,1.5,21.93
15.618995904922485,-10.41,-19.09,2.42,21.87
15.629228830337524,-11.05,-18.42,3.09,21.7
15.639011859893799,-12.1,-17.11,3.54,21.25
15.649335861206055,-13.43,-15.61,3.33,20.85
15.659042835235596,-13.98,-13.52,2.36,19.59
15.669875860214233,-13.53,-11.19,1.1,17.59
15.698976993560791,-12.36,-9.85,0.1,15.8
15.701217889785767,-11.32,-9.27,-0.15,14.63
15.703125953674316,-10.92,-8.97,0.52,14.14
15.712876796722412,-10.97,-9.16,2.0,14.43
15.718492031097412,-11.23,-8.84,2.57,14.52
15.728662967681885,-11.77,-8.14,2.08,14.46
15.738557815551758,-12.51,-7.17,1.78,14.52
15.748868942260742,-13.65,-5.98,1.63,14.99
15.75960087776184,-14.84,-5.13,2.01,15.82
15.769020795822144,-16.37,-4.53,2.56,17.17
15.797261714935303,-18.29,-2.82,2.9,18.73
15.799563884735107,-18.66,-0.36,2.16,18.78
15.80147385597229,-17.04,0.83,0.76,17.07
15.815147876739502,-14.64,-0.36,-0.55,14.65
15.817710876464844,-12.65,-2.02,-0.69,12.82
15.8297758102417,-11.55,-2.72,-0.68,11.88
15.837883949279785,-10.86,-2.83,-0.79,11.25
15.848627805709839,-10.32,-2.38,-0.96,10.63
15.857733726501465,-10.03,-2.02,-1.12,10.29
15.86860990524292,-10.23,-2.01,-0.84,10.45
15.894905805587769,-11.11,-1.47,-0.13,11.2
15.897182941436768,-11.69,-0.7,0.48,11.72
15.899094820022583,-11.57,0.08,1.03,11.61
15.914927005767822,-11.14,0.87,1.3,11.24
15.91699481010437,-10.34,1.6,0.88,10.5
15.928895950317383,-9.76,1.87,-0.24,9.94
15.937176704406738,-9.52,0.96,-1.13,9.63
15.947070837020874,-9.05,-0.47,-1.54,9.19
15.957590818405151,-8.22,-0.97,-1.93,8.49
15.967759847640991,-7.28,-0.62,-2.02,7.58
15.977674007415771,-6.62,-0.08,-1.86,6.87
15.999783992767334,-6.48,0.51,-1.55,6.68
16.001877784729004,-6.88,1.18,-1.24,7.08
16.00657081604004,-7.48,1.86,-1.02,7.77
16.01607584953308,-7.69,2.41,-0.73,8.09
16.026278972625732,-7.33,2.55,-0.53,7.77
16.036617755889893,-6.64,2.3,-0.45,7.04
16.04651188850403,-5.91,1.78,-0.33,6.18
16.0570068359375,-5.22,1.16,-0.11,5.34
16.0671329498291,-4.5,0.75,0.06,4.56
16.076478958129883,-3.95,0.56,0.09,3.99
16.09950590133667,-3.57,0.51,0.11,3.6
16.101629734039307,-3.24,0.52,0.12,3.28
16.105647802352905,-3.01,0.6,0.06,3.06
16.115315914154053,-2.91,0.77,-0.04,3.01
16.126023769378662,-2.79,1.0,-0.11,2.96
16.135315895080566,-2.7,1.17,-0.19,2.94
16.145051956176758,-2.75,1.19,-0.19,3.0
16.155613899230957,-2.74,1.07,-0.02,2.94
16.165607929229736,-2.56,0.91,0.21,2.72
16.176286697387695,-2.41,0.86,0.4,2.58
16.198672771453857,-2.34,0.9,0.61,2.58
16.20042896270752,-2.32,0.9,0.89,2.64
16.204336881637573,-2.4,0.85,1.12,2.78
16.21438694000244,-2.36,0.77,1.17,2.74
16.224445819854736,-2.27,0.65,1.23,2.66
16.235201835632324,-2.17,0.61,1.14,2.52
16.24459171295166,-2.12,0.8,0.88,2.43
16.255729913711548,-2.14,0.99,0.58,2.42
16.264909744262695,-2.07,1.14,0.17,2.36
16.275482892990112,-2.01,1.25,-0.29,2.38
16.29596996307373,-1.97,1.23,-0.8,2.45
16.29797601699829,-1.92,1.21,-1.35,2.64
16.303549766540527,-1.85,1.26,-1.76,2.84
16.31425380706787,-1.81,1.37,-2.07,3.07
16.323493003845215,-1.79,1.44,-2.29,3.24
16.333467960357666,-1.72,1.47,-2.5,3.37
16.343873023986816,-1.74,1.53,-2.65,3.52
16.353757858276367,-1.82,1.57,-2.66,3.58
16.364476680755615,-1.82,1.61,-2.59,3.55
16.373942852020264,-1.8,1.62,-2.45,3.44
16.398874759674072,-1.74,1.53,-2.18,3.18
16.400993824005127,-1.6,1.37,-1.85,2.8
16.403116703033447,-1.42,1.19,-1.46,2.35
16.414365768432617,-1.24,0.99,-1.09,1.92
16.422898769378662,-1.07,0.83,-0.72,1.53
16.432738780975342,-0.93,0.69,-0.38,1.21
16.44312882423401,-0.81,0.6,-0.1,1.01
16.453081846237183,-0.71,0.46,0.15,0.85
16.462862014770508,-0.6,0.33,0.39,0.78
16.473362922668457,-0.39,0.26,0.63,0.78
16.50236701965332,-0.19,0.19,0.83,0.87
16.504475831985474,-0.1,0.05,1.05,1.05
16.5064959526062,0.03,-0.03,1.28,1.28
16.512671947479248,0.1,-0.06,1.42,1.42
16.522196769714355,0.12,-0.06,1.55,1.55
16.532086849212646,0.05,-0.01,1.62,1.62
16.542690753936768,0.03,0.04,1.57,1.57
16.55286693572998,0.08,0.13,1.5,1.5
16.562705993652344,0.05,0.13,1.37,1.37
16.572924852371216,-0.14,0.13,1.2,1.21
16.598956823349,-0.26,0.19,1.04,1.08
16.60099983215332,-0.25,0.22,0.83,0.89
16.60293483734131,-0.19,0.22,0.68,0.73
16.614279747009277,-0.19,0.31,0.53,0.64
16.6213698387146,-0.33,0.49,0.44,0.73
16.631244897842407,-0.54,0.69,0.39,0.95
16.64173984527588,-0.61,0.82,0.33,1.07
16.651515007019043,-0.68,0.79,0.32,1.09
16.661723852157593,-0.73,0.71,0.4,1.09
16.671926021575928,-0.66,0.71,0.5,1.09
16.704171895980835,-0.53,0.81,0.48,1.08
16.7063570022583,-0.33,0.9,0.4,1.03
16.708255767822266,-0.17,0.95,0.28,1.0
16.712214946746826,-0.07,0.96,0.22,0.98
16.722364902496338,0.01,0.95,0.27,0.98
16.732028007507324,0.02,0.93,0.43,1.02
16.742503881454468,-0.05,0.98,0.69,1.19
16.752495765686035,-0.04,0.96,0.99,1.37
16.76277494430542,-0.16,0.85,1.21,1.48
16.772640705108643,-0.43,0.74,1.44,1.67
16.802838802337646,-0.46,0.46,1.65,1.77
16.805147886276245,-0.23,-0.04,1.67,1.68
16.80704975128174,0.17,-0.44,1.28,1.36
16.814525842666626,0.61,-0.45,0.6,0.96
16.821327686309814,0.99,-0.12,-0.05,0.99
16.831329822540283,1.22,0.27,-0.51,1.34
16.84190082550049,1.15,0.65,-0.74,1.51
16.851513862609863,0.71,0.98,-0.71,1.4
16.86213970184326,0.16,1.16,-0.48,1.26
16.87180185317993,-0.36,1.13,-0.28,1.21
16.882327795028687,-0.75,0.98,-0.16,1.24
16.90463876724243,-0.83,0.76,0.07,1.12
16.90664768218994,-0.59,0.56,0.32,0.87
16.910639762878418,-0.34,0.42,0.43,0.69
16.921018838882446,-0.13,0.12,0.36,0.4
16.930776834487915,0.12,-0.09,0.48,0.5
16.94093084335327,0.2,0.31,0.91,0.98
16.95139789581299,0.54,0.11,0.76,0.93
16.961383819580078,0.77,0.43,0.7,1.12
16.971158027648926,1.03,0.59,0.28,1.21
16.981629848480225,1.22,0.7,0.01,1.4
17.005149841308594,1.09,0.84,-0.17,1.38
17.00717067718506,0.82,0.93,-0.23,1.26
17.00985288619995,0.56,1.01,-0.28,1.18
17.020174026489258,0.41,0.96,-0.27,1.07
17.030053853988647,0.43,0.63,-0.41,0.86
17.039938926696777,0.61,0.24,-0.54,0.84
17.05031681060791,0.88,0.18,-0.58,1.06
17.06002902984619,0.86,0.26,-0.52,1.03
17.070709705352783,0.48,0.36,-0.33,0.68
17.080431938171387,0.18,0.14,-0.2,0.3
17.10486602783203,-0.03,-0.12,0.15,0.19
17.1068696975708,-0.26,-0.09,0.63,0.68
17.109177827835083,-0.32,-0.25,0.93,1.01
17.119192838668823,-0.24,-0.41,1.08,1.17
17.12962293624878,-0.16,-0.52,1.02,1.15
17.139365911483765,-0.18,-0.52,0.83,0.99
17.149560928344727,-0.23,-0.5,0.6,0.81
17.159976959228516,-0.25,-0.45,0.36,0.62
17.16967487335205,-0.24,-0.43,0.2,0.53
17.179849863052368,-0.25,-0.46,0.1,0.53
17.201979875564575,-0.21,-0.48,0.1,0.53
17.203807830810547,-0.16,-0.37,0.15,0.43
17.208385944366455,-0.22,-0.21,0.39,0.49
17.218753814697266,-0.28,-0.12,0.68,0.74
17.22854781150818,-0.34,-0.09,0.87,0.93
17.238160848617554,-0.34,-0.01,0.97,1.02
17.248672008514404,-0.28,-0.07,0.93,0.97
17.258586883544922,-0.01,-0.2,0.87,0.89
17.268892765045166,0.25,-0.26,0.78,0.85
17.279157876968384,0.41,-0.29,0.7,0.86
17.308222770690918,0.55,-0.39,0.73,0.99
17.310199737548828,0.64,-0.45,0.84,1.14
17.312020778656006,0.63,-0.46,0.92,1.2
17.317988872528076,0.61,-0.33,0.98,1.2
17.327727794647217,0.54,-0.19,0.96,1.11
17.337888717651367,0.5,0.01,0.89,1.02
17.34749984741211,0.37,0.18,0.67,0.78
17.35771369934082,0.16,0.29,0.36,0.48
17.36795687675476,-0.01,0.49,0.05,0.49
17.378596782684326,0.0,0.65,-0.29,0.71
17.407163858413696,0.25,0.63,-0.24,0.71
17.40904998779297,0.62,0.64,-0.14,0.9
17.411102771759033,0.77,0.72,-0.19,1.07
17.417162895202637,0.72,0.7,-0.18,1.02
17.4290509223938,0.53,0.68,-0.23,0.89
17.436802864074707,0.47,0.23,-0.19,0.55
17.44699478149414,0.37,0.3,-0.13,0.49
17.457499027252197,0.11,1.01,-0.06,1.01
17.467479705810547,0.24,0.88,-0.08,0.91
17.477836847305298,0.12,0.64,-0.1,0.65
17.511512756347656,-0.22,0.75,0.0,0.78
17.51360273361206,-0.47,1.04,0.13,1.14
17.515671730041504,-0.5,1.22,0.13,1.32
17.532456874847412,-0.4,1.28,0.02,1.34
17.534377813339233,-0.28,1.25,-0.11,1.28
17.536805868148804,-0.19,1.12,-0.26,1.16
17.54680299758911,-0.12,0.94,-0.26,0.98
17.55614471435547,-0.38,0.7,0.31,0.85
17.565934896469116,-0.86,0.7,0.69,1.3
17.57637596130371,-0.79,0.74,0.19,1.09
17.606374740600586,-0.9,0.85,0.04,1.23
17.608479022979736,-0.87,0.95,-0.19,1.3
17.610520839691162,-0.85,0.96,-0.52,1.38
17.61551284790039,-0.55,1.0,-0.64,1.3
17.629515886306763,-0.25,0.95,-0.59,1.14
17.63572597503662,-0.21,0.8,-0.39,0.91
17.646727800369263,-0.32,0.54,-0.15,0.64
17.65604281425476,-0.44,0.2,0.16,0.5
17.665969848632812,-0.27,0.26,0.53,0.64
17.676225900650024,-0.13,0.55,0.48,0.74
17.68626594543457,-0.07,0.75,0.24,0.79
17.708011865615845,-0.13,0.77,-0.02,0.78
17.710261821746826,-0.3,0.76,-0.28,0.86
17.71491003036499,-0.59,0.65,-0.44,0.98
17.724785804748535,-1.22,0.61,-1.07,1.73
17.734705924987793,-1.16,0.48,-0.66,1.41
17.744983911514282,-0.68,0.49,-0.5,0.97
17.75508975982666,-0.46,0.7,-0.67,1.07
17.76460289955139,0.03,0.47,-0.6,0.76
17.776014804840088,0.3,0.24,-0.67,0.77
17.784945011138916,0.27,0.2,-0.84,0.9
17.807462692260742,0.26,0.15,-0.87,0.92
17.809820890426636,0.18,0.06,-0.8,0.82
17.81419801712036,0.01,0.06,-0.59,0.59
17.823797702789307,-0.06,0.05,-0.29,0.3
17.834228992462158,-0.11,-0.04,-0.1,0.15
17.8442440032959,-0.18,-0.03,-0.01,0.18
17.854184865951538,-0.33,0.06,0.05,0.33
17.864986896514893,-0.37,0.1,0.14,0.4
17.874570846557617,-0.34,0.0,0.17,0.38
17.884819984436035,-0.35,-0.11,0.06,0.37
17.907195806503296,-0.37,-0.16,0.0,0.4
17.90951180458069,-0.34,-0.2,0.04,0.39
17.913822889328003,-0.34,-0.16,0.08,0.38
17.923354864120483,-0.31,-0.11,0.04,0.33
17.933259963989258,-0.27,-0.04,0.06,0.27
17.943228721618652,-0.3,0.04,0.11,0.32
17.953715801239014,-0.31,0.1,0.26,0.41
17.96343469619751,-0.38,0.16,0.48,0.63
17.973732948303223,-0.55,0.24,0.67,0.89
17.983633995056152,-0.76,0.25,0.71,1.06
18.00606870651245,-0.72,0.21,0.63,0.97
18.00838589668274,-0.41,0.15,0.44,0.61
18.012738704681396,0.06,0.02,0.23,0.23
18.02229881286621,0.48,-0.03,0.04,0.48
18.033628940582275,0.71,0.01,-0.08,0.71
18.04291582107544,0.79,0.09,-0.15,0.8
18.052769899368286,0.77,0.19,-0.17,0.81
18.063400745391846,0.6,0.34,-0.07,0.69
18.072966814041138,0.27,0.45,0.1,0.53
18.08298397064209,0.12,0.54,0.35,0.65
18.111632823944092,0.05,0.66,0.58,0.88
18.11363172531128,0.01,0.76,0.7,1.03
18.115707874298096,0.03,0.89,0.67,1.11
18.13296389579773,0.06,0.97,0.51,1.09
18.1348557472229,0.11,0.97,0.29,1.01
18.14781093597412,0.19,0.98,0.1,1.0
18.151943683624268,0.26,0.97,0.02,1.0
18.1640408039093,0.23,0.89,-0.02,0.91
18.17173194885254,-0.02,0.77,0.07,0.77
18.18244695663452,-0.18,0.75,0.27,0.81
18.212790966033936,-0.25,0.88,0.26,0.95
18.215087890625,-0.35,1.03,0.13,1.09
18.216951847076416,-0.38,1.1,0.02,1.16
18.23281478881836,-0.35,1.11,0.01,1.16
18.234582901000977,-0.34,1.08,0.07,1.13
18.247450828552246,-0.37,1.08,0.21,1.16
18.250802993774414,-0.42,1.04,0.48,1.22
18.26359272003174,-0.42,0.9,0.76,1.25
18.271156787872314,-0.25,0.83,0.86,1.22
18.281484842300415,-0.04,0.8,0.83,1.15
18.309753894805908,0.13,0.67,0.81,1.05
18.31201696395874,0.32,0.53,0.87,1.06
18.313889026641846,0.48,0.5,0.85,1.09
18.332993984222412,0.54,0.54,0.71,1.04
18.334879875183105,0.43,0.62,0.62,0.97
18.348355770111084,0.21,0.7,0.63,0.96
18.35126495361328,0.1,0.74,0.65,0.99
18.36372184753418,0.1,0.77,0.55,0.95
18.370391845703125,0.15,0.78,0.39,0.88
18.381447792053223,0.17,0.72,0.32,0.8
18.408488750457764,0.25,0.62,0.34,0.75
18.41078281402588,0.35,0.55,0.36,0.74
18.412580013275146,0.38,0.49,0.4,0.73
18.419371843338013,0.38,0.39,0.59,0.8
18.429669857025146,0.39,0.42,0.77,0.95
18.439424991607666,0.33,0.5,0.83,1.02
18.449458837509155,0.21,0.54,0.91,1.07
18.459716796875,0.08,0.55,0.99,1.13
18.470435857772827,0.05,0.54,1.02,1.15
18.48025369644165,0.11,0.47,0.97,1.08
18.489962816238403,0.22,0.35,0.95,1.03
18.5114848613739,0.35,0.26,0.97,1.06
18.51375985145569,0.39,0.2,1.02,1.11
18.51865291595459,0.3,0.24,1.06,1.12
18.532574892044067,0.22,0.23,1.09,1.13
18.538623809814453,0.26,0.15,1.06,1.1
18.548579692840576,0.41,0.11,0.84,0.94
18.559013843536377,0.38,0.23,0.55,0.7
18.568896770477295,0.23,0.4,0.26,0.52
18.579264879226685,0.19,0.44,-0.03,0.48
18.58932876586914,-0.02,0.64,-0.18,0.66
18.611953735351562,-0.4,0.8,-0.32,0.94
18.61415195465088,-0.63,1.06,-0.44,1.3
18.618066787719727,-0.66,1.2,-0.59,1.49
18.632969856262207,-0.68,1.15,-0.73,1.52
18.637967824935913,-0.46,1.06,-0.83,1.42
18.64851999282837,-0.08,0.91,-0.77,1.19
18.658473014831543,0.17,0.68,-0.64,0.94
18.668898820877075,0.33,0.47,-0.45,0.72
18.678720951080322,0.38,0.22,-0.25,0.5
18.68894386291504,0.28,0.18,0.01,0.33
18.713661909103394,0.33,0.06,0.22,0.4
18.715953826904297,0.47,-0.18,0.4,0.64
18.71786594390869,0.36,0.09,0.63,0.73
18.73314380645752,0.04,0.34,0.7,0.77
18.737053871154785,-0.19,0.37,1.0,1.08
18.747707843780518,-0.41,0.24,1.2,1.29
18.75753402709961,-0.37,0.01,1.08,1.14
18.767508029937744,-0.18,-0.01,0.82,0.83
18.778170824050903,0.05,0.0,0.44,0.44
18.7879638671875,0.31,-0.02,0.12,0.33
18.811307907104492,0.37,-0.02,-0.18,0.41
18.813438892364502,0.09,0.02,-0.16,0.18
18.81637191772461,-0.19,0.02,0.09,0.21
18.833112716674805,-0.5,0.08,0.36,0.62
18.836287021636963,-0.72,0.19,0.65,0.98
18.848703861236572,-1.0,0.28,0.76,1.28
18.856229782104492,-1.08,0.29,0.86,1.41
18.866995811462402,-0.95,0.37,0.76,1.27
18.877026796340942,-0.54,0.28,0.42,0.73
18.88684582710266,-0.04,0.11,-0.08,0.14
18.913930892944336,0.45,-0.12,-0.62,0.77
18.916218757629395,0.71,-0.1,-0.81,1.08
18.918113708496094,0.54,0.11,-0.77,0.94
18.932888984680176,0.3,0.19,-0.79,0.86
18.93560290336609,0.04,0.27,-0.73,0.77
18.947805881500244,-0.03,0.32,-0.78,0.84
18.95576786994934,0.02,0.49,-0.82,0.95
18.96596097946167,-0.12,0.57,-0.62,0.85
18.97656488418579,-0.25,0.49,-0.34,0.64
18.98629093170166,-0.4,0.36,0.0,0.53
19.018354892730713,-0.4,0.21,0.29,0.53
19.020412921905518,-0.25,0.12,0.34,0.43
19.02233076095581,0.04,0.07,0.15,0.17
19.032989025115967,0.24,0.18,-0.05,0.3
19.03502082824707,0.22,0.32,0.08,0.39
19.048386812210083,0.16,0.25,0.44,0.53
19.055206775665283,0.11,-0.11,0.49,0.51
19.065133810043335,0.42,-0.54,0.43,0.8
19.074936866760254,0.87,-0.71,0.55,1.25
19.085563898086548,1.15,-0.6,0.65,1.45
19.117249965667725,1.13,-0.44,0.79,1.44
19.119534015655518,0.83,-0.4,0.92,1.3
19.121438026428223,0.55,-0.42,1.01,1.22
19.13312292098999,0.21,-0.41,1.0,1.1
19.13505792617798,0.08,-0.48,0.97,1.08
19.147822856903076,0.15,-0.62,0.94,1.13
19.154165744781494,0.36,-0.7,0.96,1.24
19.164650917053223,0.53,-0.65,0.98,1.28
19.174453735351562,0.54,-0.6,1.13,1.38
19.18492603302002,0.48,-0.69,1.33,1.57
19.213451862335205,0.34,-0.76,1.81,1.99
19.21564769744873,0.19,-0.88,2.46,2.61
19.21752691268921,0.27,-1.29,3.19,3.45
19.23346996307373,0.79,-1.56,4.1,4.45
19.235317707061768,1.23,-1.49,4.75,5.12
19.24755096435547,0.92,-1.32,5.23,5.47
19.253321886062622,-0.39,-0.83,5.16,5.24
19.26344585418701,-2.12,-0.39,4.36,4.86
19.274009704589844,-3.83,-0.52,3.43,5.16
19.283658981323242,-4.8,-1.35,3.33,5.99
19.29427480697632,-6.1,-2.34,3.47,7.39
19.314916849136353,-7.85,-4.17,2.99,9.37
19.31693983078003,-10.56,-5.9,1.86,12.23
19.32299280166626,-14.2,-6.43,-1.35,15.64
19.333034992218018,-18.52,-6.75,-6.26,20.68
19.343836784362793,-22.06,-6.49,-12.74,26.28
19.353497982025146,-23.82,-5.58,-20.24,31.75
19.363991737365723,-25.22,-4.13,-25.84,36.34
19.374019861221313,-26.93,-3.28,-28.17,39.1
19.383100032806396,-29.64,-3.42,-27.62,40.65
19.393685817718506,-33.54,-3.58,-25.75,42.43
19.41365385055542,-36.83,-4.68,-23.82,44.11
19.415671825408936,-38.22,-6.35,-21.07,44.1
19.423406839370728,-39.31,-6.86,-19.65,44.47
19.43286681175232,-41.45,-8.42,-20.95,47.2
19.442945957183838,-44.51,-11.79,-22.48,51.23
19.452963829040527,-48.3,-15.85,-24.59,56.46
19.46299386024475,-52.69,-20.83,-27.21,62.85
19.47298288345337,-59.28,-29.26,-28.49,71.98
19.48310899734497,-66.23,-41.93,-24.32,82.07
19.492921829223633,-70.5,-54.94,-15.09,90.64
19.514984846115112,-71.33,-68.53,-3.96,98.99
19.517179012298584,-72.49,-79.1,8.14,107.6
19.521546840667725,-74.04,-86.47,13.91,114.68
19.532976865768433,-75.79,-88.47,11.44,117.05
19.541688919067383,-77.07,-88.63,12.31,118.09
19.55208683013916,-69.04,-88.4,19.15,113.78
19.56203269958496,-57.28,-87.66,20.22,106.64
19.572215795516968,-49.2,-82.2,16.65,97.23
19.5815749168396,-40.8,-72.3,9.45,83.55
19.59201192855835,-34.26,-65.49,1.71,73.92
19.611773014068604,-30.08,-61.43,-2.98,68.46
19.613871812820435,-27.67,-60.22,-3.86,66.38
19.62162184715271,-24.19,-59.86,-1.37,64.57
19.63290786743164,-16.78,-58.51,3.33,60.95
19.640910863876343,-3.81,-54.93,11.29,56.2
19.65152382850647,9.7,-49.11,21.63,54.53
19.66151189804077,17.44,-43.3,28.89,54.89
19.671117782592773,14.24,-37.87,31.0,50.96
19.681150913238525,5.3,-33.33,26.34,42.81
19.69137477874756,-2.58,-29.81,17.61,34.71
19.716440677642822,-8.17,-27.07,9.35,29.78
19.718844890594482,-12.17,-26.06,3.57,28.98
19.72085475921631,-14.83,-26.31,0.15,30.2
19.7338547706604,-16.3,-26.84,-1.36,31.43
19.740190029144287,-17.3,-27.31,-2.22,32.4
19.74987268447876,-18.31,-27.11,-3.35,32.88
19.759889841079712,-18.88,-26.09,-4.3,32.49
19.769791841506958,-18.59,-24.21,-5.16,30.95
19.780258893966675,-17.65,-22.04,-6.01,28.86
19.789828777313232,-16.41,-19.78,-6.79,26.58
19.8192777633667,-15.22,-16.79,-7.56,23.88
19.821602821350098,-13.78,-13.83,-7.54,20.92
19.823508739471436,-12.18,-11.61,-6.82,18.15
19.83073377609253,-10.7,-10.13,-5.98,15.9
19.83925771713257,-8.68,-9.26,-5.35,13.77
19.848886013031006,-6.9,-8.72,-4.48,11.98
19.859160900115967,-5.67,-8.55,-3.01,10.69
19.86946678161621,-5.26,-8.69,-1.14,10.22
19.88001585006714,-6.46,-8.15,0.56,10.41
19.88943576812744,-8.95,-7.08,1.33,11.48
19.91902184486389,-12.28,-5.75,0.98,13.59
19.921337842941284,-14.44,-3.34,0.65,14.83
19.923224925994873,-14.41,-1.2,0.31,14.46
19.932036876678467,-12.93,-0.88,-0.44,12.96
19.938390731811523,-10.55,-1.55,-1.32,10.74
19.94858479499817,-8.82,-2.12,-1.88,9.26
19.958189964294434,-8.83,-1.85,-2.48,9.35
19.968703746795654,-9.4,-1.1,-2.87,9.88
19.978487968444824,-10.03,-0.73,-2.96,10.48
19.988929748535156,-10.43,-0.57,-2.43,10.72
20.01743793487549,-9.9,-0.49,-1.46,10.01
20.019673824310303,-9.3,-0.26,-0.78,9.33
20.021578788757324,-8.45,-0.22,-0.86,8.49
20.033294677734375,-7.52,-0.25,-1.4,7.65
20.037563800811768,-7.1,-0.2,-1.92,7.35
20.048719882965088,-7.14,-0.34,-1.91,7.39
20.057612895965576,-7.35,-0.74,-1.26,7.49
20.067725896835327,-7.43,-0.81,-0.55,7.49
20.07829189300537,-7.76,-0.06,-0.4,7.77
20.088358879089355,-7.9,0.79,-0.99,8.0
20.098201751708984,-7.77,1.36,-1.83,8.09
20.120625019073486,-7.65,1.59,-2.5,8.2
20.122731685638428,-7.67,1.57,-2.92,8.35
20.127413749694824,-7.85,1.69,-3.01,8.57
20.135375022888184,-8.03,1.92,-2.85,8.73
20.145294904708862,-7.79,2.05,-2.71,8.49
20.155279874801636,-7.37,2.14,-2.65,8.11
20.165419816970825,-6.82,2.2,-2.66,7.64
20.175870895385742,-6.14,2.2,-2.8,7.09
20.186126708984375,-5.5,1.98,-2.78,6.47
20.196164846420288,-4.81,1.54,-2.48,5.62
20.217432975769043,-4.07,1.07,-2.2,4.74
20.219505786895752,-3.64,0.51,-1.81,4.09
20.224536895751953,-3.38,0.13,-1.48,3.69
20.23474383354187,-3.34,0.13,-1.35,3.6
20.244531869888306,-3.59,0.46,-1.5,3.91
20.25434398651123,-3.64,0.87,-1.8,4.15
20.264819860458374,-3.28,1.0,-2.21,4.07
20.274794816970825,-2.63,0.96,-2.62,3.83
20.28523874282837,-1.83,0.82,-2.93,3.55
20.295212745666504,-1.09,0.57,-3.13,3.36
20.321756839752197,-0.57,0.21,-3.1,3.15
20.32380485534668,-0.15,-0.17,-2.75,2.75
20.32594585418701,0.17,-0.46,-2.16,2.21
20.33397102355957,0.36,-0.66,-1.54,1.71
20.34392285346985,0.34,-0.73,-0.97,1.26
20.35404396057129,0.03,-0.59,-0.67,0.89
20.363751888275146,-0.46,-0.26,-0.61,0.8
20.373961925506592,-0.77,-0.15,-0.69,1.04
20.3839328289032,-0.84,-0.32,-0.88,1.25
20.395211696624756,-0.83,-0.5,-1.08,1.45
20.419895887374878,-0.87,-0.54,-1.32,1.67
20.422026872634888,-0.95,-0.55,-1.57,1.91
20.423988819122314,-1.07,-0.44,-1.78,2.12
20.43314790725708,-1.24,-0.33,-1.89,2.28
20.44308590888977,-1.41,-0.26,-1.9,2.38
20.453009843826294,-1.56,-0.22,-1.7,2.31
20.463114738464355,-1.84,-0.16,-1.38,2.3
20.473585844039917,-2.32,0.0,-1.0,2.52
20.483083724975586,-2.81,0.24,-0.66,2.89
20.494030952453613,-3.14,0.43,-0.44,3.19
20.520627975463867,-3.34,0.52,-0.39,3.4
20.52268075942993,-3.55,0.69,-0.43,3.64
20.52475881576538,-3.73,0.82,-0.57,3.86
20.532431840896606,-3.8,0.86,-0.73,3.96
20.542435884475708,-3.67,0.93,-0.84,3.87
20.55231475830078,-3.4,1.0,-0.88,3.65
20.562737941741943,-3.14,1.11,-0.86,3.43
20.572486877441406,-2.94,1.24,-0.88,3.3
20.583395957946777,-2.74,1.31,-0.96,3.18
20.59284281730652,-2.54,1.32,-1.01,3.03
20.62293577194214,-2.3,1.27,-1.0,2.81
20.625022888183594,-2.03,1.25,-0.98,2.57
20.627164840698242,-1.79,1.18,-0.93,2.33
20.632032871246338,-1.53,1.02,-0.81,2.0
20.641472816467285,-1.3,0.9,-0.67,1.71
20.651554822921753,-1.08,0.8,-0.45,1.41
20.66134285926819,-0.76,0.75,-0.27,1.1
20.671669960021973,-0.45,0.79,-0.16,0.92
20.681790828704834,-0.2,0.79,-0.07,0.81
20.692449808120728,0.02,0.7,-0.01,0.7
20.724288940429688,0.13,0.64,0.03,0.65
20.726385831832886,0.15,0.63,-0.03,0.64
20.728457927703857,0.19,0.65,-0.1,0.68
20.731685876846313,0.23,0.66,-0.15,0.71
20.748180866241455,0.26,0.61,-0.19,0.68
20.751075744628906,0.29,0.56,-0.11,0.64
20.763437747955322,0.26,0.6,0.04,0.65
20.771422863006592,0.19,0.57,0.21,0.63
20.78160285949707,0.1,0.46,0.37,0.59
20.79166889190674,-0.02,0.39,0.5,0.63
20.80146598815918,-0.18,0.44,0.58,0.74
20.825000762939453,-0.39,0.58,0.67,0.96
20.82732582092285,-0.56,0.69,0.76,1.16
20.83059072494507,-0.74,0.82,0.75,1.33
20.840281009674072,-0.87,0.92,0.74,1.46
20.850473880767822,-0.85,0.9,0.73,1.43
20.86005187034607,-0.74,0.81,0.73,1.31
20.870940685272217,-0.61,0.7,0.7,1.16
20.880486011505127,-0.52,0.67,0.73,1.11
20.890848875045776,-0.44,0.69,0.79,1.13
20.900791883468628,-0.36,0.61,0.81,1.07
20.924067974090576,-0.27,0.45,0.72,0.89
20.92594885826111,-0.29,0.39,0.63,0.79
20.929688930511475,-0.23,0.39,0.6,0.75
20.93988585472107,-0.17,0.42,0.63,0.77
20.94966697692871,-0.12,0.41,0.69,0.81
20.959621906280518,-0.11,0.38,0.7,0.8
20.969913959503174,-0.08,0.24,0.72,0.76
20.98067569732666,-0.05,0.12,0.73,0.74
20.99021291732788,0.05,0.08,0.74,0.74
21.000422954559326,0.18,0.04,0.75,0.77
21.022974967956543,0.26,0.08,0.65,0.7
21.025072813034058,0.35,0.12,0.47,0.59
21.029014825820923,0.57,0.07,0.27,0.63
21.039044857025146,0.74,0.01,0.18,0.76
21.049181938171387,0.71,-0.03,0.26,0.75
21.058595895767212,0.51,0.0,0.39,0.64
21.069265842437744,0.25,0.05,0.43,0.49
21.07917070388794,0.07,0.1,0.44,0.45
21.089833736419678,-0.1,0.18,0.42,0.46
21.09939479827881,-0.22,0.27,0.3,0.45
21.12445068359375,-0.27,0.25,0.04,0.37
21.126502990722656,-0.22,0.13,-0.23,0.34
21.128597736358643,-0.17,0.01,-0.29,0.33
21.13851284980774,-0.13,-0.12,-0.28,0.33
21.148293018341064,-0.2,0.02,-0.13,0.23
21.158108711242676,-0.34,0.19,-0.03,0.39
21.16826295852661,-0.35,0.24,0.0,0.42
21.178294897079468,-0.36,0.31,0.04,0.47
21.188377857208252,-0.23,0.23,0.05,0.32
21.198721885681152,0.0,0.02,0.02,0.02
21.229512691497803,0.22,-0.17,-0.06,0.28
21.231541872024536,0.39,-0.21,-0.13,0.46
21.233665943145752,0.4,-0.08,-0.16,0.43
21.251341819763184,0.4,0.01,-0.04,0.4
21.253171920776367,0.36,0.03,0.07,0.36
21.264156818389893,0.31,0.03,0.04,0.31
21.267228841781616,0.28,-0.02,0.02,0.28
21.281649827957153,0.31,-0.07,-0.03,0.31
21.287449836730957,0.35,-0.04,-0.1,0.36
21.299936771392822,0.27,0.05,-0.16,0.31
21.324822902679443,0.15,0.09,-0.15,0.23
21.32717490196228,0.05,0.11,-0.14,0.18
21.329063892364502,-0.02,0.2,-0.13,0.23
21.336752891540527,-0.05,0.36,-0.06,0.36
21.348009824752808,-0.12,0.49,0.05,0.5
21.35643982887268,-0.22,0.52,0.12,0.57
21.36654281616211,-0.28,0.49,0.15,0.58
21.376853942871094,-0.26,0.39,0.13,0.48
21.386834859848022,-0.18,0.23,0.07,0.3
21.39732599258423,-0.13,0.19,-0.01,0.23
21.427985906600952,-0.11,0.22,-0.09,0.26
21.430068969726562,-0.14,0.26,-0.11,0.31
21.432048797607422,-0.18,0.26,-0.04,0.31
21.450662851333618,-0.24,0.24,-0.07,0.34
21.452569007873535,-0.3,0.28,-0.18,0.44
21.46593189239502,-0.3,0.35,-0.2,0.5
21.46865177154541,-0.27,0.32,-0.08,0.42
21.48160696029663,-0.3,0.28,0.05,0.41
21.48627471923828,-0.25,0.23,0.14,0.36
21.499467849731445,-0.17,0.2,0.24,0.35
21.523990869522095,-0.07,0.19,0.35,0.4
21.52628803253174,0.02,0.09,0.39,0.4
21.528060913085938,0.1,-0.04,0.45,0.46
21.535178899765015,0.14,-0.17,0.54,0.58
21.5481538772583,0.28,-0.2,0.46,0.57
21.554993867874146,0.4,-0.08,0.3,0.5
21.564916849136353,0.44,0.03,0.25,0.5
21.57521677017212,0.37,0.03,0.29,0.47
21.58524799346924,0.23,0.08,0.31,0.39
21.59573984146118,0.17,0.15,0.33,0.4
21.605782985687256,0.19,0.13,0.21,0.31
21.628904819488525,0.34,0.06,0.0,0.34
21.631131887435913,0.47,0.01,-0.14,0.49
21.6348557472229,0.52,-0.01,-0.19,0.55
21.65135097503662,0.43,0.06,-0.18,0.47
21.654249906539917,0.22,0.23,-0.04,0.32
21.665823936462402,0.02,0.23,0.15,0.27
21.674166679382324,-0.08,0.2,0.21,0.3
21.684597969055176,-0.01,0.23,0.17,0.28
21.695213794708252,0.08,0.26,0.07,0.28
21.704908847808838,0.07,0.27,-0.01,0.27
21.729390859603882,-0.09,0.29,0.09,0.31
21.73165988922119,-0.32,0.31,0.3,0.53
21.7336368560791,-0.48,0.35,0.39,0.71
21.751179695129395,-0.42,0.43,0.27,0.65
21.753479957580566,-0.2,0.48,0.04,0.52
21.765784740447998,-0.04,0.52,-0.19,0.55
21.773605823516846,0.07,0.48,-0.38,0.61
21.783957958221436,0.13,0.4,-0.49,0.64
21.793815851211548,0.05,0.43,-0.43,0.61
21.804325819015503,-0.18,0.53,-0.16,0.58
21.82568073272705,-0.57,0.62,0.17,0.85
21.827804803848267,-0.74,0.49,0.36,0.95
21.832923889160156,-0.67,0.36,0.36,0.84
21.8431978225708,-0.58,0.37,0.22,0.72
21.852933883666992,-0.62,0.5,0.03,0.79
21.863464832305908,-0.72,0.58,-0.14,0.93
21.872610807418823,-0.62,0.52,-0.23,0.84
21.88336992263794,-0.47,0.49,-0.19,0.7
21.893882751464844,-0.33,0.48,-0.15,0.6
21.903291702270508,-0.21,0.5,-0.15,0.56
21.92817497253418,-0.17,0.47,-0.13,0.51
21.930473804473877,-0.14,0.38,-0.03,0.4
21.93237280845642,0.0,0.18,0.0,0.18
21.95146894454956,0.2,-0.01,0.05,0.2
21.953369855880737,0.3,-0.07,0.19,0.36
21.969160795211792,0.33,-0.06,0.37,0.49
21.97209072113037,0.28,-0.02,0.53,0.59
21.982594966888428,0.07,0.13,0.65,0.66
21.99270486831665,-0.05,0.2,0.64,0.67
22.002832889556885,-0.05,0.12,0.45,0.46
22.0338397026062,0.0,0.04,0.22,0.22
22.03621482849121,0.02,0.04,0.14,0.14
22.03804874420166,0.05,0.03,0.27,0.27
22.05205988883972,0.07,0.0,0.35,0.35
22.05400800704956,0.1,0.0,0.33,0.34
22.066404819488525,0.14,-0.06,0.24,0.28
22.071220874786377,0.18,-0.16,0.11,0.26
22.08277702331543,0.26,-0.16,0.08,0.31
22.091476917266846,0.23,-0.07,0.12,0.26
22.101439952850342,0.17,-0.05,0.23,0.29
22.129657745361328,0.21,-0.15,0.34,0.42
22.13188886642456,0.25,-0.22,0.36,0.49
22.133649826049805,0.21,-0.22,0.36,0.47
22.151553869247437,0.14,-0.14,0.41,0.45
22.15343999862671,0.13,-0.08,0.45,0.47
22.165859699249268,0.2,-0.07,0.49,0.53
22.170467853546143,0.17,0.03,0.49,0.51
22.183109760284424,0.11,0.09,0.4,0.42
22.190943717956543,0.07,0.07,0.21,0.23
22.201114892959595,0.06,0.07,0.15,0.17
22.232638835906982,0.24,-0.07,0.18,0.3
22.23491668701172,0.42,-0.11,0.11,0.44
22.236778736114502,0.41,-0.06,-0.01,0.41
22.25138282775879,0.33,-0.06,-0.09,0.34
22.253154754638672,0.23,-0.06,-0.03,0.23
22.266287803649902,0.21,-0.08,0.1,0.24
22.269726753234863,0.14,-0.01,0.12,0.18
22.28339195251465,-0.06,0.16,0.01,0.17
22.289859771728516,-0.19,0.28,-0.14,0.36
22.299940824508667,-0.28,0.39,-0.21,0.52
22.329547882080078,-0.39,0.46,-0.24,0.64
22.33178997039795,-0.47,0.45,-0.26,0.7
22.333590030670166,-0.5,0.35,-0.33,0.69
22.351539850234985,-0.36,0.4,-0.43,0.68
22.35336971282959,-0.35,0.49,-0.39,0.71
22.36574387550354,-0.34,0.45,-0.34,0.65
22.369342803955078,-0.27,0.42,-0.35,0.6
22.38257598876953,-0.38,0.51,-0.41,0.75
22.389230728149414,-0.42,0.48,-0.47,0.79
22.399314880371094,-0.19,0.34,-0.37,0.53
22.40972590446472,0.14,0.1,-0.08,0.18
22.43565273284912,0.29,-0.09,0.35,0.46
22.437772750854492,0.16,0.03,0.73,0.74
22.439846992492676,-0.09,0.13,0.84,0.85
22.45095181465149,-0.21,0.05,0.71,0.74
22.45867085456848,-0.26,0.05,0.62,0.67
22.468260765075684,-0.28,0.1,0.58,0.65
22.47874689102173,-0.15,0.04,0.4,0.42
22.48865580558777,0.11,-0.1,0.19,0.24
22.499274730682373,0.26,-0.08,-0.02,0.27
22.509097814559937,0.28,-0.02,-0.13,0.3
22.53178882598877,0.15,-0.03,-0.09,0.17
22.53386878967285,-0.07,-0.09,-0.03,0.11
22.537938833236694,-0.31,-0.2,0.07,0.37
22.550450801849365,-0.52,-0.3,0.3,0.67
22.557724952697754,-0.82,-0.36,0.47,1.01
22.567502975463867,-1.19,-0.45,0.59,1.4
22.578182697296143,-1.5,-0.61,0.77,1.79
22.587928771972656,-1.6,-1.05,0.96,2.14
22.598954677581787,-1.57,-1.62,1.21,2.55
22.607622861862183,-1.72,-1.81,1.2,2.77
22.631011962890625,-2.23,-1.5,1.02,2.87
22.63334584236145,-2.92,-1.04,0.68,3.17
22.637406826019287,-3.79,-0.83,0.3,3.89
22.65258288383484,-4.58,-1.43,0.14,4.8
22.656888008117676,-4.96,-3.08,0.45,5.85
22.666818857192993,-4.59,-4.56,0.78,6.51
22.6771559715271,-4.76,-5.7,0.8,7.46
22.687063694000244,-5.76,-6.99,0.65,9.08
22.69699788093567,-7.92,-7.78,-0.37,11.1
22.707340717315674,-10.91,-8.27,-2.27,13.87
22.732536792755127,-12.86,-8.61,-4.46,16.1
22.73477602005005,-14.08,-8.47,-6.61,17.71
22.736793994903564,-15.37,-8.37,-8.29,19.36
22.751864910125732,-16.58,-8.41,-9.32,20.79
22.75664782524109,-17.47,-8.25,-9.2,21.39
22.76680588722229,-18.01,-8.09,-8.11,21.34
22.776872873306274,-18.77,-7.95,-5.96,21.23
22.78731870651245,-19.71,-7.35,-3.87,21.38
22.79723882675171,-20.3,-6.97,-2.89,21.65
22.806859970092773,-20.7,-7.06,-3.23,22.1
22.83529782295227,-22.89,-7.02,-5.03,24.46
22.837689876556396,-26.24,-6.71,-7.55,28.11
22.839703798294067,-30.56,-7.75,-10.2,33.13
22.851351737976074,-35.86,-8.95,-11.9,38.82
22.8561749458313,-40.74,-9.4,-13.63,43.97
22.86764669418335,-44.38,-10.43,-16.21,48.38
22.876192808151245,-46.27,-12.91,-17.95,51.28
22.88550901412964,-48.58,-18.85,-14.97,54.21
22.896095752716064,-50.71,-28.59,-6.54,58.58
22.906315803527832,-51.47,-39.07,4.27,64.76
22.930157899856567,-50.06,-48.14,15.86,71.23
22.932530879974365,-49.76,-57.29,24.18,79.64
22.93541383743286,-50.89,-70.82,22.51,90.06
22.954157829284668,-49.19,-81.81,18.17,97.17
22.956183910369873,-44.89,-83.12,16.15,95.83
22.96724796295166,-41.09,-77.91,13.6,89.12
22.975327014923096,-40.27,-73.73,11.51,84.79
22.984551906585693,-37.77,-68.21,9.39,78.53
22.995954990386963,-35.25,-61.99,6.45,71.6
23.005582809448242,-34.4,-56.64,3.21,66.34
23.032172679901123,-32.98,-52.82,-0.33,62.27
23.03444480895996,-30.67,-50.72,-3.99,59.4
23.036390781402588,-27.46,-49.29,-6.6,56.8
23.0522358417511,-23.2,-47.06,-7.54,53.0
23.054329872131348,-18.26,-45.56,-6.85,49.55
23.06657886505127,-12.24,-44.9,-4.67,46.77
23.07426881790161,-4.31,-44.22,-1.17,44.44
23.08450484275818,5.13,-41.16,4.21,41.69
23.094448804855347,11.54,-36.05,10.74,39.34
23.104919910430908,11.48,-31.85,15.93,37.41
23.13282084465027,7.55,-28.77,18.57,35.06
23.13520097732544,3.66,-25.36,18.46,31.58
23.137112855911255,-0.11,-23.0,15.38,27.66
23.151999950408936,-4.04,-21.79,10.74,24.62
23.154053688049316,-7.42,-21.3,6.34,23.42
23.16553282737732,-9.74,-21.49,2.71,23.74
23.174240827560425,-10.91,-22.01,0.0,24.56
23.183122873306274,-11.35,-22.54,-2.06,25.32
23.193792819976807,-11.2,-22.95,-3.55,25.78
23.20286273956299,-10.7,-23.15,-4.44,25.88
23.21344780921936,-10.23,-23.21,-4.74,25.8
23.234190940856934,-10.18,-22.91,-4.67,25.5
23.236225843429565,-10.49,-22.3,-4.68,25.08
23.242616891860962,-11.11,-21.09,-4.56,24.26
23.252651691436768,-11.74,-19.58,-4.25,23.22
23.262592792510986,-12.15,-17.9,-3.84,21.97
23.272657871246338,-12.46,-16.46,-3.32,20.9
23.28273582458496,-12.59,-15.2,-2.63,19.91
23.29276990890503,-12.78,-13.78,-2.26,18.92
23.30323600769043,-13.25,-12.42,-2.05,18.27
23.31312584877014,-13.5,-11.19,-1.51,17.59
23.334552764892578,-12.81,-9.85,-0.93,16.18
23.336577892303467,-11.39,-8.77,-0.59,14.38
23.341702938079834,-9.55,-7.55,-0.17,12.17
23.351950883865356,-7.87,-6.7,0.22,10.33
23.361848831176758,-7.14,-6.78,0.64,9.86
23.37210988998413,-7.87,-6.84,1.0,10.47
23.38227891921997,-8.91,-6.34,1.19,10.99
23.39198398590088,-9.77,-5.87,1.12,11.45
23.402729988098145,-10.62,-4.94,0.65,11.73
23.412441730499268,-10.91,-3.69,-0.04,11.51
23.434765815734863,-10.44,-3.25,-0.83,10.96
23.43681573867798,-10.03,-3.49,-1.11,10.67
23.44117283821106,-9.53,-3.54,-0.75,10.19
23.452252864837646,-9.32,-3.44,-0.36,9.94
23.46152687072754,-10.2,-2.98,0.1,10.62
23.47109079360962,-11.18,-2.05,0.38,11.37
23.480791807174683,-11.48,-1.28,0.01,11.55
23.49204969406128,-11.19,-0.71,-0.58,11.22
23.501231908798218,-10.42,-0.43,-1.14,10.49
23.511377811431885,-9.22,-0.99,-1.38,9.37
23.533430814743042,-8.25,-2.17,-0.84,8.57
23.53545379638672,-7.89,-3.19,0.16,8.51
23.540555000305176,-8.01,-3.63,0.9,8.84
23.551747798919678,-8.76,-3.48,1.17,9.49
23.560340881347656,-10.1,-2.62,0.84,10.46
23.57092785835266,-11.49,-1.05,0.39,11.54
23.58191180229187,-12.16,0.41,-0.97,12.2
23.59129571914673,-11.59,1.55,-2.97,12.06
23.600284814834595,-9.61,2.1,-4.98,11.02
23.61148190498352,-7.61,1.89,-6.46,10.15
23.642319679260254,-5.73,0.93,-6.29,8.55
23.644421815872192,-4.1,-0.17,-4.78,6.29
23.646493911743164,-3.52,-1.0,-2.78,4.59
23.650084972381592,-3.93,-1.43,-1.0,4.29
23.66716194152832,-4.81,-1.41,0.27,5.01
23.669399738311768,-5.87,-0.87,0.73,5.97
23.682565689086914,-6.89,-0.34,0.51,6.91
23.68937873840332,-7.06,0.1,0.0,7.06
23.699657917022705,-6.39,0.51,-0.65,6.44
23.709707736968994,-5.46,0.43,-1.1,5.58
23.739245891571045,-4.56,0.07,-1.29,4.73
23.741273880004883,-3.92,-0.23,-1.5,4.2
23.74337100982666,-3.64,-0.27,-1.71,4.03
23.751465797424316,-3.66,-0.07,-1.82,4.08
23.75892686843872,-3.83,-0.04,-1.7,4.19
23.768752813339233,-3.96,-0.08,-1.52,4.24
23.778870820999146,-4.11,0.0,-1.27,4.3
23.789155960083008,-4.26,0.09,-0.92,4.35
23.79905390739441,-4.46,0.0,-0.55,4.49
23.809369802474976,-4.56,-0.12,-0.33,4.57
23.837949752807617,-4.6,0.0,-0.41,4.61
23.84022092819214,-4.78,0.38,-0.73,4.85
23.842124938964844,-4.75,0.7,-1.14,4.93
23.850961685180664,-4.48,0.85,-1.52,4.8
23.858048915863037,-4.27,0.95,-1.85,4.74
23.867918968200684,-4.1,0.95,-2.06,4.68
23.87796401977539,-4.0,0.86,-2.17,4.63
23.88828468322754,-3.85,0.72,-2.26,4.52
23.89852786064148,-3.69,0.67,-2.38,4.44
23.908209800720215,-3.52,0.61,-2.52,4.37
23.93721580505371,-3.45,0.5,-2.67,4.39
23.939466953277588,-3.24,0.36,-2.85,4.33
23.941280841827393,-2.85,0.36,-3.13,4.24
23.94971990585327,-2.43,0.47,-3.41,4.21
23.957464694976807,-2.02,0.6,-3.63,4.19
23.967577934265137,-1.71,0.65,-3.78,4.19
23.97709894180298,-1.46,0.61,-3.74,4.06
23.987889766693115,-1.18,0.65,-3.55,3.79
23.997524738311768,-0.96,0.75,-3.21,3.43
24.007661819458008,-0.8,0.75,-2.72,2.93
24.018229961395264,-0.72,0.71,-2.22,2.43
24.04155683517456,-0.64,0.71,-1.75,1.99
24.043505907058716,-0.52,0.71,-1.32,1.58
24.046684741973877,-0.44,0.62,-0.92,1.19
24.056665897369385,-0.33,0.5,-0.61,0.85
24.067015886306763,-0.2,0.49,-0.42,0.67
24.076517820358276,-0.07,0.51,-0.27,0.58
24.086612701416016,-0.02,0.49,-0.12,0.5
24.098083972930908,-0.06,0.43,0.04,0.43
24.107143878936768,-0.12,0.33,0.19,0.39
24.117185831069946,-0.13,0.25,0.36,0.45
24.142217874526978,-0.09,0.16,0.56,0.58
24.144349813461304,-0.02,0.01,0.77,0.77
24.146451950073242,0.11,-0.03,0.93,0.93
24.15564203262329,0.22,0.04,1.09,1.11
24.166244983673096,0.32,0.08,1.24,1.28
24.175540924072266,0.33,0.06,1.39,1.42
24.185227870941162,0.3,-0.03,1.54,1.56
24.196242809295654,0.28,-0.06,1.64,1.66
24.205528736114502,0.29,-0.03,1.72,1.74
24.216097831726074,0.32,-0.08,1.82,1.84
24.239394903182983,0.33,-0.28,1.94,1.98
24.241514682769775,0.49,-0.32,1.96,2.04
24.244977951049805,0.72,-0.19,1.85,1.99
24.25473189353943,0.85,-0.06,1.74,1.93
24.26484990119934,0.84,-0.03,1.64,1.84
24.274717807769775,0.77,-0.03,1.44,1.63
24.285104751586914,0.66,0.09,1.17,1.34
24.294915676116943,0.56,0.22,0.95,1.12
24.30578374862671,0.51,0.25,0.82,0.99
24.315645694732666,0.52,0.27,0.59,0.83
24.33879590034485,0.55,0.27,0.41,0.73
24.34073781967163,0.53,0.22,0.3,0.64
24.344031810760498,0.44,0.13,0.17,0.48
24.3540940284729,0.38,0.08,0.04,0.39
24.36413288116455,0.29,0.07,-0.09,0.31
24.37390375137329,0.18,0.09,-0.22,0.29
24.384135723114014,0.16,0.19,-0.22,0.33
24.394264698028564,0.1,0.32,-0.36,0.49
24.404919862747192,-0.05,0.39,-0.47,0.61
24.41467785835266,-0.2,0.5,-0.49,0.72
24.443349838256836,-0.38,0.64,-0.53,0.91
24.44551181793213,-0.47,0.68,-0.5,0.96
24.447712898254395,-0.52,0.68,-0.46,0.97
24.45350480079651,-0.61,0.74,-0.37,1.02
24.466386795043945,-0.69,0.83,-0.2,1.09
24.473087787628174,-0.71,0.93,-0.06,1.17
24.482995986938477,-0.7,0.96,0.07,1.19
24.493497848510742,-0.68,1.05,0.1,1.25
24.503381729125977,-0.66,1.12,0.08,1.3
24.513947010040283,-0.61,1.02,0.07,1.19
24.540530681610107,-0.46,0.83,0.0,0.94
24.54257869720459,-0.4,0.63,-0.09,0.75
24.54471182823181,-0.35,0.49,-0.11,0.61
24.55257272720337,-0.35,0.41,-0.11,0.55
24.562636852264404,-0.39,0.19,-0.06,0.43
24.57247495651245,-0.39,-0.06,-0.09,0.4
24.582281827926636,-0.42,-0.15,-0.27,0.52
24.59277868270874,-0.14,-0.18,-0.03,0.23
24.602866888046265,0.07,-0.13,-0.05,0.15
24.61361598968506,0.16,0.04,-0.04,0.16
24.638667821884155,0.23,0.11,0.13,0.28
24.640841960906982,0.09,0.16,0.2,0.27
24.642931938171387,0.05,0.22,0.27,0.35
24.65226173400879,0.09,0.25,0.32,0.41
24.66184902191162,0.21,0.25,0.34,0.47
24.67180299758911,0.35,0.25,0.33,0.54
24.68165397644043,0.4,0.21,0.33,0.55
24.692065715789795,0.39,0.11,0.35,0.53
24.7027268409729,0.29,0.05,0.29,0.41
24.71418786048889,0.13,0.13,0.21,0.27
24.742551803588867,-0.01,0.2,0.11,0.22
24.74457287788391,-0.13,0.23,0.04,0.26
24.746663808822632,-0.21,0.28,-0.07,0.35
24.75265073776245,-0.25,0.33,-0.28,0.49
24.766340732574463,-0.24,0.34,-0.5,0.65
24.77242088317871,-0.21,0.32,-0.67,0.77
24.782999992370605,-0.2,0.3,-0.78,0.85
24.792871952056885,-0.22,0.26,-0.85,0.91
24.802847862243652,-0.26,0.24,-0.82,0.89
24.813241004943848,-0.35,0.28,-0.77,0.89
24.84460186958313,-0.41,0.34,-0.68,0.86
24.846632957458496,-0.46,0.4,-0.55,0.82
24.84873390197754,-0.6,0.5,-0.37,0.86
24.85187578201294,-0.8,0.62,-0.14,1.02
24.861855030059814,-0.86,0.61,0.03,1.05
24.871872901916504,-0.77,0.54,0.13,0.94
24.881824016571045,-0.53,0.47,0.19,0.73
24.891502857208252,-0.3,0.43,0.18,0.55
24.90237283706665,-0.15,0.36,0.14,0.41
24.912220001220703,-0.07,0.21,0.07,0.23
24.92354393005371,0.07,0.0,0.05,0.08
24.944434881210327,0.29,-0.26,-0.02,0.39
24.94671869277954,0.46,-0.51,-0.08,0.69
24.951128005981445,0.56,-0.57,-0.01,0.79
24.961421966552734,0.46,-0.44,0.08,0.64
24.971245765686035,0.19,-0.16,0.18,0.3
24.981273889541626,-0.12,0.06,0.25,0.28
24.990922927856445,-0.46,0.25,0.32,0.61
25.00167179107666,-0.83,0.43,0.35,0.99
25.01107382774353,-1.21,0.63,0.45,1.43
25.0219087600708,-1.79,0.99,0.54,2.11
25.045466899871826,-2.16,1.11,0.58,2.49
25.047741889953613,-1.88,0.7,0.56,2.08
25.05080270767212,-1.27,0.31,0.42,1.37
25.060544967651367,-0.52,0.06,0.11,0.53
25.07026767730713,0.19,-0.05,-0.26,0.32
25.08016872406006,0.63,-0.07,-0.53,0.82
25.090880870819092,0.77,-0.1,-0.64,1.0
25.10108995437622,0.74,-0.22,-0.61,0.98
25.11082887649536,0.67,-0.37,-0.44,0.88
25.121195793151855,0.64,-0.39,-0.16,0.76
25.144452810287476,0.7,-0.33,0.09,0.77
25.146753787994385,0.82,-0.29,0.22,0.89
25.149903774261475,0.88,-0.26,0.3,0.96
25.159921884536743,0.81,-0.22,0.32,0.89
25.169880867004395,0.69,-0.26,0.27,0.78
25.180657863616943,0.59,-0.28,0.28,0.71
25.189725875854492,0.6,-0.3,0.28,0.72
25.200504779815674,0.71,-0.35,0.32,0.85
25.20965576171875,0.87,-0.41,0.29,1.0
25.220279693603516,0.96,-0.41,0.25,1.07
25.24402689933777,1.0,-0.37,0.28,1.1
25.246088981628418,0.96,-0.32,0.3,1.05
25.249006748199463,0.7,-0.19,0.37,0.81
25.259029865264893,0.33,0.0,0.45,0.55
25.2688148021698,0.12,0.08,0.5,0.52
25.278954029083252,-0.07,0.11,0.52,0.53
25.28918981552124,-0.2,0.09,0.51,0.55
25.299275875091553,-0.09,0.05,0.42,0.43
25.30936098098755,0.07,0.01,0.26,0.26
25.319464683532715,0.27,0.01,0.07,0.27
25.349600791931152,0.34,0.07,-0.14,0.37
25.351555824279785,0.27,0.15,-0.29,0.42
25.35367488861084,0.09,0.19,-0.39,0.44
25.369953870773315,-0.1,0.23,-0.39,0.46
25.37198781967163,-0.32,0.32,-0.38,0.59
25.383387804031372,-0.53,0.41,-0.3,0.73
25.387860774993896,-0.6,0.5,-0.14,0.79
25.400436878204346,-0.54,0.54,-0.05,0.76
25.40797781944275,-0.45,0.43,-0.05,0.62
25.41857099533081,-0.31,0.3,-0.09,0.44
25.447826862335205,-0.09,0.25,-0.17,0.31
25.45017981529236,0.09,0.21,-0.24,0.33
25.452048778533936,0.18,0.15,-0.27,0.35
25.46948480606079,0.14,0.11,-0.19,0.26
25.471328735351562,0.07,0.14,-0.01,0.15
25.48430871963501,0.05,0.13,0.18,0.22
25.487098693847656,0.1,0.1,0.35,0.37
25.501669883728027,0.14,0.08,0.47,0.49
25.506911754608154,0.26,0.06,0.51,0.57
25.518235683441162,0.38,0.02,0.45,0.58
25.54343581199646,0.41,-0.01,0.32,0.52
25.54570984840393,0.41,0.02,0.21,0.46
25.54750394821167,0.38,0.08,0.17,0.42
25.55698585510254,0.32,0.16,0.18,0.4
25.567786693572998,0.21,0.3,0.21,0.42
25.57658100128174,-0.01,0.47,0.26,0.53
25.586419820785522,-0.21,0.61,0.24,0.68
25.596954822540283,-0.35,0.71,0.09,0.79
25.606810808181763,-0.37,0.69,-0.05,0.78
25.61728572845459,-0.34,0.64,-0.16,0.74
25.646622896194458,-0.32,0.62,-0.27,0.74
25.648536682128906,-0.31,0.68,-0.29,0.8
25.650638818740845,-0.38,0.74,-0.26,0.87
25.6697039604187,-0.41,0.73,-0.27,0.87
25.671442985534668,-0.35,0.7,-0.28,0.83
25.683157920837402,-0.31,0.66,-0.31,0.79
25.685614824295044,-0.24,0.51,-0.33,0.65
25.70103693008423,-0.24,0.5,-0.37,0.66
25.705833911895752,-0.28,0.64,-0.32,0.76
25.71902370452881,-0.32,0.7,-0.17,0.78
25.726265907287598,-0.44,0.8,0.03,0.91
25.755578994750977,-0.52,0.78,0.18,0.95
25.757596969604492,-0.6,0.63,0.28,0.91
25.759668827056885,-0.68,0.5,0.33,0.9
25.769264698028564,-1.02,0.52,0.49,1.24
25.77520489692688,-1.66,0.51,0.72,1.87
25.78534984588623,-2.75,0.31,0.73,2.86
25.794850826263428,-3.74,-0.17,0.53,3.78
25.805271863937378,-4.5,-0.81,-0.18,4.57
25.815765857696533,-5.33,-1.14,-1.64,5.69
25.825081825256348,-6.79,-1.22,-3.43,7.7
25.84767985343933,-9.6,-1.3,-5.16,10.97
25.84994888305664,-12.94,-2.12,-7.2,14.95
25.854942798614502,-15.62,-2.97,-10.08,18.82
25.869882822036743,-17.7,-2.44,-13.58,22.44
25.874502897262573,-19.69,-1.35,-17.29,26.23
25.884612798690796,-21.66,-0.81,-20.95,30.14
25.89508080482483,-23.21,0.57,-23.33,32.91
25.904966831207275,-24.97,1.58,-23.85,34.56
25.915562868118286,-26.89,0.92,-22.21,34.88
25.925129890441895,-28.78,-0.4,-19.34,34.67
25.948369026184082,-30.16,-1.42,-14.61,33.54
25.950757026672363,-31.32,-1.33,-8.93,32.59
25.954216957092285,-35.1,-2.37,-5.36,35.58
25.970131874084473,-38.9,-4.74,-3.22,39.31
25.973803997039795,-41.96,-5.68,-1.85,42.38
25.983911991119385,-43.65,-5.21,-1.74,43.99
25.99392580986023,-45.8,-4.61,-3.36,46.15
26.005037784576416,-48.06,-5.29,-5.03,48.61
26.014405727386475,-50.49,-6.89,-5.51,51.25
26.024081707000732,-52.84,-9.55,-4.38,53.87
26.04482078552246,-54.86,-13.0,-2.21,56.42
26.047181844711304,-58.56,-19.0,-1.14,61.57
26.054085731506348,-61.85,-28.95,0.17,68.29
26.063204765319824,-62.37,-37.02,1.45,72.54
26.07341480255127,-61.77,-44.46,3.81,76.2
26.083228826522827,-58.81,-50.4,6.96,77.76
26.09368896484375,-54.45,-52.15,10.04,76.06
26.103522777557373,-50.3,-49.1,12.5,71.39
26.11397075653076,-45.86,-44.73,13.52,65.47
26.123833894729614,-40.34,-40.91,12.59,58.81
26.151782989501953,-34.52,-37.87,9.53,52.12
26.15411376953125,-30.26,-36.07,5.5,47.4
26.156070709228516,-27.92,-34.54,2.27,44.47
26.170065879821777,-25.21,-32.12,0.78,40.83
26.17286968231201,-22.09,-29.63,0.36,36.95
26.184138774871826,-19.88,-27.39,0.39,33.84
26.192895889282227,-18.51,-25.33,1.15,31.39
26.202037811279297,-17.93,-23.62,1.98,29.72
26.213247776031494,-17.86,-22.43,2.7,28.79
26.22309970855713,-17.65,-21.58,3.27,28.06
26.249497890472412,-16.97,-20.75,3.67,27.05
26.25187397003174,-15.69,-19.92,4.31,25.72
26.25386095046997,-13.85,-19.12,5.33,24.2
26.270256996154785,-11.41,-18.53,6.43,22.69
26.2723548412323,-8.73,-18.04,7.48,21.39
26.284997940063477,-6.05,-17.79,8.41,20.58
26.292231798171997,-3.98,-17.1,9.3,19.86
26.301244735717773,-3.4,-16.41,9.32,19.17
26.3126118183136,-4.1,-16.35,8.03,18.67
26.322455883026123,-5.16,-16.45,5.92,18.22
26.348602771759033,-6.09,-16.5,3.83,18.0
26.350883960723877,-7.07,-16.62,1.83,18.15
26.35280990600586,-8.05,-16.77,-0.22,18.6
26.370487689971924,-8.77,-16.72,-1.75,18.96
26.37240481376648,-9.75,-16.25,-2.52,19.11
26.384715795516968,-10.98,-15.95,-2.68,19.54
26.390520811080933,-11.8,-15.78,-2.21,19.82
26.40161895751953,-12.18,-15.58,-1.54,19.83
26.411436796188354,-12.29,-15.57,-0.96,19.85
26.421111822128296,-12.25,-15.97,-0.31,20.12
26.45155096054077,-12.06,-16.47,0.4,20.41
26.453946828842163,-11.86,-17.15,1.05,20.87
26.455878734588623,-11.7,-18.3,1.73,21.78
26.470236778259277,-11.4,-19.52,2.48,22.74
26.472158908843994,-11.23,-20.43,3.05,23.51
26.484760761260986,-11.11,-21.48,3.67,24.45
26.489771842956543,-11.55,-23.14,4.74,26.29
26.501518726348877,-12.78,-24.73,6.4,28.56
26.510089874267578,-15.34,-26.35,8.11,31.55
26.52021074295044,-18.76,-27.1,9.89,34.41
26.530749797821045,-23.06,-27.06,11.57,37.38
26.553998947143555,-26.96,-25.99,12.9,39.6
26.556099891662598,-30.33,-23.58,13.82,40.82
26.559746742248535,-32.99,-20.47,13.88,41.23
26.570291996002197,-33.56,-18.42,12.67,40.32
26.5798819065094,-33.21,-17.58,11.6,39.32
26.59017276763916,-31.81,-17.24,10.37,37.63
26.60004472732544,-30.33,-17.01,9.03,35.92
26.61030387878418,-31.06,-15.97,7.92,35.81
26.620107889175415,-33.34,-13.5,6.73,36.59
26.63037085533142,-35.25,-9.87,4.4,36.86
26.650928020477295,-35.23,-7.41,0.93,36.01
26.65304470062256,-33.62,-4.81,-2.1,34.02
26.659255981445312,-29.19,-2.91,-4.72,29.71
26.669557809829712,-24.08,-3.61,-5.72,25.01
26.67922592163086,-21.11,-5.27,-5.05,22.33
26.68940496444702,-20.25,-5.89,-4.15,21.49
26.69938898086548,-21.04,-5.42,-3.68,22.03
26.709093809127808,-22.35,-3.79,-3.65,22.96
26.718921899795532,-23.13,-1.07,-3.51,23.41
26.729764938354492,-23.17,1.7,-2.66,23.38
26.75057888031006,-23.0,3.92,-1.69,23.39
26.752717971801758,-21.99,5.42,-1.43,22.69
26.758617877960205,-19.62,5.78,-2.02,20.55
26.77012300491333,-16.89,5.49,-2.85,17.98
26.7779438495636,-14.34,4.88,-3.54,15.55
26.788474798202515,-12.14,4.1,-3.82,13.37
26.797424793243408,-10.18,3.32,-3.81,11.36
26.80816388130188,-8.46,2.77,-3.66,9.62
26.81827187538147,-7.09,2.58,-3.55,8.33
26.828274726867676,-6.08,2.64,-3.45,7.47
26.850680828094482,-5.33,2.74,-3.4,6.89
26.85279083251953,-4.72,2.81,-3.39,6.45
26.85698699951172,-4.24,2.86,-3.35,6.11
26.869696855545044,-3.83,2.89,-3.3,5.82
26.876868724822998,-3.55,2.74,-3.19,5.5
26.887633800506592,-3.37,2.74,-3.16,5.37
26.896931886672974,-2.95,2.79,-3.57,5.4
26.907187938690186,-2.37,2.67,-3.65,5.1
26.917113780975342,-1.75,2.47,-3.16,4.37
26.927567958831787,-1.19,2.2,-2.51,3.54
26.956394910812378,-0.63,1.92,-1.99,2.83
26.958683013916016,-0.09,1.69,-1.59,2.32
26.960524797439575,0.33,1.41,-1.31,1.95
26.968393802642822,0.7,1.04,-1.08,1.65
26.97625970840454,1.01,0.71,-0.95,1.55
26.98607301712036,1.23,0.42,-0.88,1.56
26.99628973007202,1.35,0.22,-0.78,1.57
27.00655484199524,1.38,0.06,-0.62,1.51
27.01628589630127,1.44,0.06,-0.5,1.52
27.026878833770752,1.39,0.26,-0.39,1.46
27.058462858200073,1.15,0.47,-0.24,1.26
27.060694694519043,0.75,0.57,-0.02,0.94
27.0626118183136,0.31,0.58,0.24,0.7
27.06973385810852,-0.06,0.57,0.54,0.78
27.075284957885742,-0.32,0.55,0.79,1.01
27.085590839385986,-0.44,0.46,0.99,1.17
27.095634937286377,-0.44,0.35,1.1,1.23
27.105708837509155,-0.39,0.28,1.17,1.26
27.116240978240967,-0.32,0.2,1.25,1.3
27.126120805740356,-0.26,0.14,1.33,1.36
27.15817379951477,-0.28,0.1,1.38,1.41
27.16034483909607,-0.36,0.1,1.39,1.43
27.162184715270996,-0.46,0.08,1.35,1.42
27.16769790649414,-0.56,0.04,1.29,1.4
27.17525887489319,-0.61,-0.03,1.17,1.31
27.185284852981567,-0.6,-0.08,1.07,1.22
27.194686889648438,-0.52,-0.1,0.96,1.09
27.20504093170166,-0.47,-0.1,0.84,0.96
27.21487784385681,-0.42,-0.15,0.74,0.86
27.22522783279419,-0.3,-0.19,0.61,0.7
27.254088878631592,-0.23,-0.21,0.43,0.53
27.2563419342041,-0.27,-0.27,0.29,0.47
27.258211851119995,-0.25,-0.29,0.1,0.39
27.27052593231201,-0.13,-0.17,-0.12,0.24
27.27385902404785,-0.04,0.0,-0.25,0.25
27.285457849502563,-0.06,0.11,-0.33,0.35
27.293975830078125,-0.18,0.25,-0.38,0.48
27.304271697998047,-0.35,0.46,-0.48,0.75
27.31422472000122,-0.36,0.59,-0.58,0.9
27.324598789215088,-0.18,0.55,-0.6,0.83
27.334336757659912,-0.05,0.4,-0.64,0.75
27.360082864761353,0.13,0.22,-0.58,0.63
27.362109899520874,0.35,0.0,-0.52,0.62
27.364171981811523,0.45,-0.16,-0.4,0.62
27.373302936553955,0.47,-0.21,-0.28,0.58
27.385119915008545,0.44,-0.23,-0.15,0.51
27.393027782440186,0.29,-0.18,-0.01,0.34
27.403414726257324,0.05,0.05,0.11,0.13
27.41354274749756,-0.15,0.23,0.16,0.31
27.42337679862976,-0.37,0.33,0.19,0.53
27.43366003036499,-0.45,0.25,0.21,0.55
27.45637083053589,-0.47,0.16,0.12,0.51
27.458388805389404,-0.46,0.27,0.05,0.53
27.4626407623291,-0.39,0.36,0.02,0.53
27.472579956054688,-0.26,0.34,-0.04,0.42
27.482656002044678,-0.21,0.33,-0.02,0.39
27.492978811264038,-0.24,0.36,0.06,0.43
27.50290083885193,-0.29,0.36,0.17,0.49
27.513181686401367,-0.25,0.27,0.46,0.58
27.52335500717163,-0.19,0.17,0.77,0.81
27.533543825149536,-0.1,0.15,0.94,0.95
27.557812690734863,-0.05,0.21,1.16,1.17
27.559818744659424,0.03,0.23,1.43,1.44
27.561935901641846,0.04,0.22,1.6,1.61
27.571738719940186,-0.06,0.17,1.67,1.67
27.581811904907227,-0.29,0.24,1.7,1.74
27.591758728027344,-0.55,0.33,1.64,1.76
27.60198187828064,-0.92,0.54,1.55,1.88
27.61203384399414,-1.41,0.86,1.46,2.2
27.622427940368652,-1.7,0.84,1.47,2.39
27.632394790649414,-1.55,0.37,1.35,2.08
27.657177925109863,-0.99,-0.15,0.81,1.28
27.65921401977539,-0.29,-0.46,0.12,0.55
27.661333799362183,0.53,-0.64,-0.75,1.11
27.671090841293335,1.14,-0.52,-1.49,1.94
27.681639909744263,1.29,-0.17,-1.94,2.33
27.691038846969604,1.0,0.13,-1.99,2.23
27.701433897018433,0.38,0.44,-1.7,1.79
27.711270809173584,-0.3,0.61,-1.17,1.35
27.721689701080322,-0.69,0.62,-0.6,1.1
27.731873989105225,-0.73,0.55,-0.37,0.98
27.762423992156982,-0.45,0.33,-0.29,0.62
27.764511823654175,0.04,-0.02,-0.41,0.41
27.766589879989624,0.72,-0.2,-0.55,0.92
27.77027177810669,1.04,-0.18,-0.67,1.25
27.780622005462646,1.14,-0.22,-0.7,1.35
27.790392875671387,1.05,-0.21,-0.54,1.19
27.80021095275879,0.72,-0.08,-0.2,0.75
27.810282707214355,0.26,0.11,0.24,0.37
27.8208270072937,-0.1,0.17,0.71,0.73
27.830935955047607,-0.27,0.13,1.12,1.15
27.86042594909668,-0.32,0.17,1.35,1.39
27.862483978271484,-0.25,0.16,1.24,1.27
27.865111827850342,-0.06,-0.02,0.98,0.98
27.870218753814697,0.2,-0.21,0.74,0.79
27.884300708770752,0.43,-0.33,0.59,0.8
27.88929796218872,0.67,-0.4,0.47,0.91
27.90056085586548,0.86,-0.41,0.43,1.04
27.909721851348877,0.91,-0.35,0.51,1.1
27.919579029083252,0.88,-0.27,0.65,1.12
27.92935085296631,0.76,-0.23,0.8,1.12
27.961777687072754,0.53,-0.16,0.91,1.06
27.963850021362305,0.31,-0.08,1.08,1.12
27.965811729431152,0.31,-0.07,1.14,1.18
27.96885585784912,0.4,-0.07,0.99,1.07
27.985095977783203,0.47,-0.08,0.85,0.97
27.988598823547363,0.58,-0.15,0.73,0.94
28.00056481361389,0.61,-0.18,0.6,0.87
28.00836181640625,0.48,-0.07,0.53,0.71
28.0188570022583,0.26,0.08,0.58,0.64
28.029414892196655,-0.06,0.18,0.58,0.61
28.057776927947998,-0.4,0.32,0.49,0.7
28.05983591079712,-0.74,0.52,0.34,0.96
28.06192398071289,-0.95,0.64,0.16,1.15
28.068570852279663,-0.97,0.61,0.14,1.15
28.077992916107178,-0.83,0.52,0.11,0.98
28.088027954101562,-0.6,0.55,-0.08,0.81
28.09796690940857,-0.42,0.64,-0.29,0.81
28.10805082321167,-0.31,0.61,-0.52,0.85
28.118713855743408,-0.19,0.5,-0.57,0.78
28.12927484512329,-0.04,0.37,-0.42,0.56
28.136916875839233,0.02,0.28,-0.15,0.31
28.159894943237305,0.06,0.21,0.0,0.21
28.162099838256836,0.07,0.19,0.07,0.21
28.165714740753174,0.11,0.19,0.16,0.27
28.175936698913574,0.26,0.12,0.32,0.42
28.1860568523407,0.38,0.04,0.4,0.55
28.196160793304443,0.5,-0.08,0.35,0.61
28.20604181289673,0.62,-0.11,0.26,0.68
28.21600580215454,0.74,-0.06,0.17,0.76
28.226064682006836,0.79,-0.06,0.1,0.79
28.236355781555176,0.69,-0.02,0.08,0.69
28.259891986846924,0.5,0.03,0.14,0.52
28.262000799179077,0.3,0.08,0.21,0.37
28.265097856521606,0.16,0.13,0.21,0.29
28.275263786315918,0.07,0.16,0.17,0.24
28.285583019256592,0.11,0.18,0.02,0.21
28.2955060005188,0.17,0.26,-0.09,0.32
28.305184841156006,0.18,0.25,-0.09,0.32
28.315807819366455,0.13,0.18,-0.01,0.22
28.325263023376465,0.02,0.18,0.14,0.22
28.335886001586914,-0.11,0.22,0.27,0.36
28.360700845718384,-0.17,0.31,0.38,0.51
28.362767696380615,-0.14,0.33,0.4,0.53
28.36491084098816,-0.03,0.29,0.37,0.47
28.374327898025513,0.12,0.22,0.32,0.4
28.384614944458008,0.24,0.16,0.25,0.38
28.3943088054657,0.24,0.14,0.19,0.33
28.40447688102722,0.18,0.13,0.18,0.28
28.41460084915161,0.17,0.11,0.23,0.3
28.42471170425415,0.15,0.12,0.2,0.27
28.434782028198242,0.09,0.18,0.17,0.26
28.460672855377197,0.07,0.22,0.13,0.26
28.462466716766357,0.08,0.24,0.09,0.26
28.464409828186035,0.06,0.27,0.07,0.28
28.47352385520935,-0.05,0.31,0.07,0.32
28.483587741851807,-0.16,0.35,0.1,0.39
28.493396759033203,-0.18,0.34,0.12,0.4
28.503844738006592,-0.15,0.32,0.16,0.38
28.513858795166016,-0.09,0.3,0.2,0.37
28.524691820144653,-0.08,0.28,0.19,0.34
28.533451795578003,-0.19,0.29,0.19,0.39
28.560898780822754,-0.29,0.3,0.27,0.49
28.562880992889404,-0.41,0.32,0.34,0.62
28.564966678619385,-0.46,0.29,0.35,0.64
28.57283592224121,-0.38,0.25,0.3,0.54
28.58526086807251,-0.35,0.17,0.3,0.49
28.592989921569824,-0.3,0.14,0.38,0.5
28.602728843688965,-0.35,0.2,0.44,0.59
28.612929821014404,-0.46,0.26,0.51,0.73
28.622825860977173,-0.53,0.36,0.66,0.91
28.633457899093628,-0.66,0.45,0.72,1.07
28.66212797164917,-0.72,0.46,0.7,1.1
28.664241790771484,-0.86,0.5,0.59,1.15
28.66625189781189,-1.13,0.5,0.54,1.34
28.672095775604248,-1.29,0.59,0.56,1.52
28.685025691986084,-1.4,0.76,0.6,1.7
28.692176818847656,-1.44,0.96,0.67,1.85
28.701936721801758,-1.72,1.19,0.73,2.21
28.71272373199463,-2.15,1.43,0.77,2.69
28.72240400314331,-2.96,1.74,0.94,3.55
28.733145713806152,-4.03,2.38,1.56,4.93
28.76391887664795,-4.86,2.83,2.33,6.08
28.765897750854492,-4.68,2.69,2.84,6.09
28.767645835876465,-3.76,2.26,2.75,5.17
28.771962881088257,-2.91,1.78,2.45,4.19
28.78138494491577,-2.59,1.63,2.05,3.68
28.791740894317627,-2.79,1.69,1.4,3.54
28.80154585838318,-3.08,1.82,0.61,3.62
28.81142568588257,-3.41,2.36,-0.35,4.16
28.82201886177063,-3.83,2.85,-1.55,5.01
28.8325138092041,-3.56,3.23,-2.52,5.42
28.841938972473145,-2.91,3.56,-3.41,5.72
28.86682891845703,-2.9,3.72,-4.66,6.63
28.869058847427368,-3.76,4.1,-6.7,8.7
28.870975971221924,-4.8,4.6,-9.63,11.7
28.88780403137207,-5.22,4.62,-12.61,14.4
28.89075779914856,-5.12,4.13,-15.37,16.71
28.901615858078003,-5.15,3.63,-17.77,18.85
28.910956859588623,-5.47,3.48,-20.4,21.4
28.921243906021118,-5.37,3.14,-23.4,24.21
28.931651830673218,-4.79,2.34,-25.71,26.25
28.941524028778076,-3.93,1.53,-26.73,27.06
28.9615797996521,-3.7,0.96,-27.45,27.71
28.963947772979736,-4.57,0.26,-28.2,28.56
28.971274852752686,-4.96,-1.48,-28.77,29.23
28.980741024017334,-4.86,-4.22,-29.78,30.46
28.990774869918823,-4.68,-8.12,-31.75,33.1
29.00039577484131,-4.13,-13.61,-34.34,37.16
29.010719776153564,-4.73,-18.97,-33.77,39.02
29.021185874938965,-8.46,-25.95,-29.95,40.52
29.031080722808838,-14.5,-34.97,-23.37,44.48
29.040812969207764,-22.07,-42.67,-13.71,49.95
29.061999797821045,-30.23,-50.19,-3.84,58.71
29.064453840255737,-36.41,-56.27,4.48,67.17
29.070600032806396,-38.51,-60.35,9.41,72.2
29.079768896102905,-38.14,-63.43,10.44,74.74
29.090317726135254,-37.2,-65.48,12.16,76.28
29.099551677703857,-35.31,-65.34,17.13,76.22
29.10989475250244,-31.65,-62.0,24.03,73.64
29.120360851287842,-25.71,-52.23,37.19,69.08
29.129746913909912,-15.45,-38.85,48.89,64.32
29.14057683944702,-1.98,-26.92,52.82,59.31
29.15964388847351,7.53,-21.67,47.49,52.74
29.161686897277832,8.85,-20.24,36.89,42.99
29.170015811920166,5.68,-18.95,25.95,32.63
29.1788387298584,0.89,-18.68,16.42,24.88
29.188947677612305,-4.06,-18.11,9.25,20.73
29.198476791381836,-7.54,-18.06,3.48,19.87
29.208508014678955,-9.55,-18.52,-0.48,20.84
29.21835470199585,-10.52,-18.63,-2.73,21.56
29.229007720947266,-10.61,-18.43,-4.17,21.67
29.238862991333008,-9.65,-18.16,-5.26,21.22
29.272501945495605,-7.61,-18.0,-5.99,20.43
29.274539947509766,-5.02,-17.94,-6.02,19.57
29.276691913604736,-2.51,-17.8,-5.16,18.7
29.28640580177307,-0.37,-17.45,-3.76,17.85
29.28837299346924,1.22,-16.96,-2.19,17.14
29.30262279510498,2.33,-16.27,-0.73,16.45
29.30769395828247,3.13,-15.39,0.29,15.7
29.31913185119629,3.56,-14.4,1.0,14.86
29.328855991363525,3.5,-13.26,1.76,13.82
29.33834481239319,3.05,-12.06,2.69,12.72
29.372289896011353,2.59,-10.93,3.6,11.79
29.374549865722656,2.39,-9.85,3.97,10.88
29.37651300430298,2.43,-9.02,3.66,10.03
29.386493682861328,2.49,-8.37,2.9,9.2
29.38840389251709,2.32,-7.63,2.33,8.3
29.402824878692627,1.94,-7.09,1.86,7.58
29.40697193145752,1.36,-6.78,1.43,7.06
29.418916702270508,0.65,-6.44,0.79,6.52
29.42775583267212,0.11,-6.02,-0.13,6.02
29.437583923339844,-0.35,-4.96,-1.38,5.16
29.466673851013184,-0.72,-3.02,-2.89,4.24
29.46900177001953,-1.23,-1.38,-5.0,5.33
29.47085475921631,-1.31,-0.97,-6.12,6.33
29.488569736480713,-1.99,-1.2,-7.66,8.0
29.490477800369263,-2.78,-1.59,-7.59,8.23
29.502935886383057,-3.38,-1.89,-6.13,7.25
